Folder: IR_CNN/data/public/sdbs/processed/samples (part 2)

File: 4-ethoxycarbonyl-3-methyl-1-(1-naphthyl)-1H-1,2,3-triazolium bromide.csv
Wavenumber,Intensity
4000.0,0.0
3984.21,83.75
3968.42,83.75
3952.63,84.375
3936.84,84.375
3921.05,84.375
3905.26,84.375
3889.47,85.0
3873.68,84.6875
3857.89,85.0
3842.11,85.625
3826.32,85.625
3810.53,85.3125
3794.74,85.625
3778.95,85.9375
3763.16,85.625
3747.37,85.0
3731.58,85.3125
3715.79,85.9375
3700.0,85.9375
3684.21,85.9375
3668.42,85.625
3652.63,85.0
3636.84,84.6875
3621.05,84.375
3605.26,84.6875
3589.47,85.0
3573.68,84.6875
3557.89,84.6875
3542.11,84.6875
3526.32,84.6875
3510.53,84.375
3494.74,84.6875
3478.95,85.625
3463.16,85.3125
3447.37,85.0
3431.58,85.625
3415.79,85.9375
3400.0,85.625
3384.21,85.0
3368.42,85.3125
3352.63,80.9375
3336.84,71.5625
3321.05,67.1875
3305.26,57.5
3289.47,35.0
3273.68,12.5
3257.89,5.0
3242.11,11.5625
3226.32,30.3125
3210.53,25.3125
3194.74,38.4375
3178.95,78.125
3163.16,83.4375
3147.37,86.875
3131.58,87.1875
3115.79,87.5
3100.0,88.125
3084.21,88.4375
3068.42,88.75
3052.63,89.6875
3036.84,89.6875
3021.05,90.3125
3005.26,90.625
2989.47,91.5625
2973.68,91.5625
2957.89,91.875
2942.11,91.875
2926.32,92.1875
2910.53,91.875
2894.74,91.5625
2878.95,92.1875
2863.16,92.1875
2847.37,92.5
2831.58,92.5
2815.79,93.125
2800.0,93.4375
2784.21,93.4375
2768.42,93.75
2752.63,94.375
2736.84,94.0625
2721.05,94.375
2705.26,94.6875
2689.47,94.375
2673.68,94.6875
2657.89,94.6875
2642.11,94.6875
2626.32,94.6875
2610.53,94.6875
2594.74,95.0
2578.95,94.6875
2563.16,94.0625
2547.37,93.75
2531.58,94.0625
2515.79,94.6875
2500.0,94.6875
2484.21,94.375
2468.42,94.375
2452.63,94.6875
2436.84,94.375
2421.05,92.8125
2405.26,92.1875
2389.47,92.8125
2373.68,93.75
2357.89,94.0625
2342.11,94.0625
2326.32,94.375
2310.53,94.375
2294.74,94.0625
2278.95,88.4375
2263.16,59.0625
2247.37,35.0
2231.58,58.125
2215.79,75.625
2200.0,83.75
2184.21,86.5625
2168.42,89.375
2152.63,90.0
2136.84,90.625
2121.05,90.3125
2105.26,90.3125
2089.47,91.5625
2073.68,92.1875
2057.89,90.3125
2042.11,91.25
2026.32,92.1875
2010.53,90.3125
1994.74,91.25
1978.95,92.5
1963.16,92.5
1947.37,89.6875
1931.58,81.875
1915.79,90.625
1900.0,88.4375
1884.21,68.75
1868.42,48.4375
1852.63,55.3125
1836.84,62.5
1821.05,73.4375
1805.26,87.1875
1789.47,73.125
1773.68,75.0
1757.89,64.0625
1742.11,65.625
1726.32,77.1875
1710.53,81.875
1694.74,86.875
1678.95,87.1875
1663.16,77.8125
1647.37,55.625
1631.58,49.0625
1615.79,63.4375
1600.0,72.5
1584.21,56.5625
1568.42,53.125
1552.63,80.0
1536.84,77.5
1521.05,82.5
1505.26,89.0625
1489.47,86.5625
1473.68,85.9375
1457.89,82.8125
1442.11,74.6875
1426.32,51.5625
1410.53,70.625
1394.74,75.625
1378.95,80.9375
1363.16,86.5625
1347.37,89.0625
1331.58,84.375
1315.79,79.375
1300.0,86.875
1284.21,90.9375
1268.42,88.4375
1252.63,78.4375
1236.84,78.4375
1221.05,88.4375
1205.26,90.9375
1189.47,88.75
1173.68,92.8125
1157.89,85.625
1142.11,90.3125
1126.32,85.9375
1110.53,90.0
1094.74,91.875
1078.95,92.8125
1063.16,92.8125
1047.37,89.375
1031.58,86.25
1015.79,90.3125
1000.0,93.4375
984.211,91.5625
968.421,84.375
952.632,62.8125
936.842,83.125
921.053,85.3125
905.263,32.8125
889.474,85.9375
873.684,87.8125
857.895,90.9375
842.105,84.6875
826.316,90.625
810.526,93.125
794.737,89.375
778.947,94.0625
763.158,93.75
747.368,78.125
731.579,92.5
715.789,93.4375
700,93.75
684.211,94.0625
668.421,92.1875
652.632,90.3125
636.842,90.9375
621.053,92.8125
605.263,94.6875
589.474,94.0625
573.684,92.5
557.895,92.5
542.105,92.1875
526.316,90.625
510.526,90.625
494.737,90.625
478.947,90.3125
463.158,88.75
447.368,85.3125
431.579,81.875
415.789,79.375
400.0,78.125

File: 4-ethoxycarbonyl-3-methyl-1-(1-naphthyl)-1H-1,2,3-triazolium p-toluenesulfonate.csv
Wavenumber,Intensity
4000.0,0.0
3984.21,85.3125
3968.42,85.625
3952.63,85.625
3936.84,85.625
3921.05,85.625
3905.26,85.625
3889.47,85.9375
3873.68,85.625
3857.89,85.625
3842.11,85.9375
3826.32,85.9375
3810.53,86.25
3794.74,85.9375
3778.95,85.9375
3763.16,85.625
3747.37,85.625
3731.58,85.9375
3715.79,85.9375
3700.0,86.25
3684.21,86.5625
3668.42,85.9375
3652.63,85.625
3636.84,85.625
3621.05,85.9375
3605.26,85.9375
3589.47,85.9375
3573.68,85.9375
3557.89,85.9375
3542.11,85.9375
3526.32,85.9375
3510.53,85.9375
3494.74,86.25
3478.95,86.25
3463.16,85.9375
3447.37,85.625
3431.58,85.625
3415.79,84.6875
3400.0,82.1875
3384.21,82.1875
3368.42,77.1875
3352.63,69.375
3336.84,71.875
3321.05,69.6875
3305.26,65.9375
3289.47,38.125
3273.68,13.75
3257.89,5.3125
3242.11,9.6875
3226.32,25.9375
3210.53,19.375
3194.74,30.0
3178.95,75.625
3163.16,83.125
3147.37,86.875
3131.58,88.125
3115.79,87.1875
3100.0,87.8125
3084.21,87.5
3068.42,88.125
3052.63,89.0625
3036.84,89.375
3021.05,89.6875
3005.26,90.625
2989.47,91.5625
2973.68,91.875
2957.89,91.875
2942.11,92.1875
2926.32,92.5
2910.53,92.1875
2894.74,92.1875
2878.95,92.5
2863.16,92.8125
2847.37,92.8125
2831.58,92.8125
2815.79,93.125
2800.0,93.125
2784.21,93.125
2768.42,93.125
2752.63,93.75
2736.84,93.75
2721.05,93.75
2705.26,94.0625
2689.47,94.0625
2673.68,94.375
2657.89,94.0625
2642.11,94.0625
2626.32,94.0625
2610.53,94.0625
2594.74,94.0625
2578.95,94.0625
2563.16,94.0625
2547.37,94.0625
2531.58,94.0625
2515.79,94.0625
2500.0,94.0625
2484.21,94.0625
2468.42,94.375
2452.63,94.6875
2436.84,94.6875
2421.05,94.375
2405.26,94.375
2389.47,94.375
2373.68,94.375
2357.89,94.375
2342.11,94.375
2326.32,94.6875
2310.53,95.0
2294.74,94.0625
2278.95,88.125
2263.16,47.1875
2247.37,76.5625
2231.58,88.125
2215.79,90.9375
2200.0,91.875
2184.21,92.8125
2168.42,92.8125
2152.63,92.8125
2136.84,92.8125
2121.05,92.8125
2105.26,93.125
2089.47,93.4375
2073.68,93.4375
2057.89,90.0
2042.11,92.5
2026.32,93.125
2010.53,93.125
1994.74,93.125
1978.95,93.125
1963.16,92.8125
1947.37,90.3125
1931.58,89.375
1915.79,89.375
1900.0,87.5
1884.21,67.8125
1868.42,46.875
1852.63,50.0
1836.84,67.1875
1821.05,83.125
1805.26,88.125
1789.47,81.5625
1773.68,80.625
1757.89,68.125
1742.11,65.625
1726.32,80.625
1710.53,86.5625
1694.74,87.1875
1678.95,89.375
1663.16,86.5625
1647.37,71.25
1631.58,74.375
1615.79,83.75
1600.0,70.3125
1584.21,69.6875
1568.42,79.375
1552.63,84.0625
1536.84,70.0
1521.05,37.8125
1505.26,33.125
1489.47,74.6875
1473.68,75.0
1457.89,75.0
1442.11,75.0
1426.32,71.875
1410.53,77.5
1394.74,67.5
1378.95,84.0625
1363.16,82.5
1347.37,88.4375
1331.58,90.0
1315.79,90.9375
1300.0,91.5625
1284.21,89.375
1268.42,56.875
1252.63,84.0625
1236.84,63.75
1221.05,90.625
1205.26,92.8125
1189.47,88.4375
1173.68,91.5625
1157.89,91.5625
1142.11,91.875
1126.32,91.5625
1110.53,90.3125
1094.74,89.6875
1078.95,90.625
1063.16,91.5625
1047.37,91.25
1031.58,89.375
1015.79,88.75
1000.0,93.4375
984.211,91.25
968.421,85.9375
952.632,70.9375
936.842,81.25
921.053,87.5
905.263,67.1875
889.474,89.0625
873.684,91.875
857.895,90.3125
842.105,85.625
826.316,87.1875
810.526,94.375
794.737,89.375
778.947,58.125
763.158,91.25
747.368,89.375
731.579,92.8125
715.789,92.8125
700,93.125
684.211,93.4375
668.421,92.5
652.632,90.625
636.842,82.5
621.053,62.5
605.263,85.9375
589.474,90.625
573.684,94.0625
557.895,92.8125
542.105,91.5625
526.316,90.3125
510.526,89.0625
494.737,89.375
478.947,90.0
463.158,88.4375
447.368,81.875
431.579,75.3125
415.789,72.5
400.0,72.1875

File: 4-ethoxycarbonyl-3-methyl-1-(1-naphthyl)-1H-1,2,3-triazolium perchlorate.csv
Wavenumber,Intensity
4000.0,0.0
3984.21,77.5
3968.42,78.125
3952.63,78.125
3936.84,77.8125
3921.05,76.875
3905.26,77.1875
3889.47,77.8125
3873.68,77.1875
3857.89,77.5
3842.11,77.5
3826.32,77.1875
3810.53,77.1875
3794.74,77.1875
3778.95,77.1875
3763.16,76.875
3747.37,77.1875
3731.58,76.875
3715.79,76.875
3700.0,76.875
3684.21,76.875
3668.42,75.3125
3652.63,74.6875
3636.84,75.0
3621.05,75.0
3605.26,75.0
3589.47,75.0
3573.68,75.0
3557.89,75.3125
3542.11,75.9375
3526.32,75.9375
3510.53,75.9375
3494.74,75.625
3478.95,75.3125
3463.16,75.0
3447.37,74.375
3431.58,74.375
3415.79,72.1875
3400.0,64.6875
3384.21,62.8125
3368.42,47.1875
3352.63,60.9375
3336.84,65.0
3321.05,62.5
3305.26,49.375
3289.47,22.8125
3273.68,8.4375
3257.89,5.3125
3242.11,5.9375
3226.32,11.875
3210.53,10.0
3194.74,13.4375
3178.95,53.75
3163.16,65.625
3147.37,71.875
3131.58,73.125
3115.79,72.1875
3100.0,73.4375
3084.21,73.125
3068.42,73.75
3052.63,75.0
3036.84,75.625
3021.05,76.5625
3005.26,77.8125
2989.47,78.75
2973.68,80.0
2957.89,80.3125
2942.11,80.9375
2926.32,80.9375
2910.53,80.9375
2894.74,80.9375
2878.95,81.5625
2863.16,82.1875
2847.37,82.1875
2831.58,82.1875
2815.79,82.1875
2800.0,83.125
2784.21,82.8125
2768.42,83.125
2752.63,83.4375
2736.84,83.75
2721.05,84.0625
2705.26,84.6875
2689.47,85.0
2673.68,85.3125
2657.89,85.625
2642.11,84.375
2626.32,83.4375
2610.53,84.375
2594.74,85.0
2578.95,85.625
2563.16,85.625
2547.37,85.9375
2531.58,86.5625
2515.79,86.875
2500.0,86.875
2484.21,86.875
2468.42,86.875
2452.63,86.875
2436.84,86.875
2421.05,86.875
2405.26,86.25
2389.47,85.9375
2373.68,86.25
2357.89,86.875
2342.11,86.875
2326.32,86.5625
2310.53,84.6875
2294.74,77.1875
2278.95,31.25
2263.16,32.1875
2247.37,66.5625
2231.58,76.25
2215.79,79.375
2200.0,82.5
2184.21,85.0
2168.42,85.9375
2152.63,85.9375
2136.84,86.25
2121.05,86.5625
2105.26,86.875
2089.47,87.8125
2073.68,87.5
2057.89,81.875
2042.11,86.25
2026.32,86.875
2010.53,86.5625
1994.74,86.5625
1978.95,86.875
1963.16,86.5625
1947.37,83.125
1931.58,76.875
1915.79,83.75
1900.0,78.75
1884.21,51.25
1868.42,24.6875
1852.63,28.4375
1836.84,43.75
1821.05,65.9375
1805.26,77.8125
1789.47,77.1875
1773.68,58.125
1757.89,48.4375
1742.11,40.9375
1726.32,62.1875
1710.53,73.125
1694.74,72.5
1678.95,78.75
1663.16,72.1875
1647.37,45.9375
1631.58,54.0625
1615.79,56.5625
1600.0,47.5
1584.21,45
1568.42,60.0
1552.63,77.8125
1536.84,75.9375
1521.05,72.1875
1505.26,76.875
1489.47,78.4375
1473.68,63.125
1457.89,63.125
1442.11,46.5625
1426.32,43.75
1410.53,56.5625
1394.74,52.1875
1378.95,38.4375
1363.16,20.3125
1347.37,21.25
1331.58,31.25
1315.79,58.125
1300.0,67.8125
1284.21,78.125
1268.42,80.0
1252.63,65.625
1236.84,74.0625
1221.05,85.3125
1205.26,88.4375
1189.47,90.0
1173.68,91.5625
1157.89,81.5625
1142.11,91.875
1126.32,91.5625
1110.53,92.1875
1094.74,91.5625
1078.95,89.6875
1063.16,90.0
1047.37,79.0625
1031.58,88.4375
1015.79,87.1875
1000.0,93.75
984.211,92.8125
968.421,81.5625
952.632,45.3125
936.842,78.75
921.053,51.5625
905.263,57.5
889.474,89.0625
873.684,92.5
857.895,88.4375
842.105,76.5625
826.316,87.8125
810.526,93.75
794.737,91.25
778.947,87.1875
763.158,94.0625
747.368,72.1875
731.579,87.5
715.789,80.0
700,50.625
684.211,85.625
668.421,89.6875
652.632,83.75
636.842,85.0
621.053,86.25
605.263,87.8125
589.474,89.0625
573.684,88.125
557.895,85.9375
542.105,85.9375
526.316,84.6875
510.526,84.6875
494.737,86.25
478.947,86.25
463.158,87.1875
447.368,80.0
431.579,70.0
415.789,68.4375
400.0,70.9375

File: 5-chloro-2-quinolinecarbonitrile.csv
Wavenumber,Intensity
4000.0,0.0
3984.21,82.5
3968.42,82.8125
3952.63,82.8125
3936.84,82.1875
3921.05,82.8125
3905.26,82.8125
3889.47,82.8125
3873.68,82.5
3857.89,82.8125
3842.11,82.8125
3826.32,82.8125
3810.53,83.125
3794.74,83.125
3778.95,83.125
3763.16,83.125
3747.37,83.125
3731.58,82.8125
3715.79,83.125
3700.0,83.4375
3684.21,83.4375
3668.42,83.125
3652.63,83.125
3636.84,82.5
3621.05,82.5
3605.26,82.1875
3589.47,81.875
3573.68,81.5625
3557.89,81.5625
3542.11,81.25
3526.32,81.25
3510.53,80.625
3494.74,80.625
3478.95,80.0
3463.16,79.375
3447.37,78.75
3431.58,78.4375
3415.79,78.4375
3400.0,78.75
3384.21,79.375
3368.42,76.5625
3352.63,75.625
3336.84,73.75
3321.05,68.4375
3305.26,55.625
3289.47,19.6875
3273.68,5.9375
3257.89,4.6875
3242.11,5.625
3226.32,10.625
3210.53,8.4375
3194.74,13.125
3178.95,62.5
3163.16,75.0
3147.37,80.625
3131.58,81.875
3115.79,80.0
3100.0,81.25
3084.21,80.9375
3068.42,80.9375
3052.63,82.5
3036.84,83.125
3021.05,83.75
3005.26,85.0
2989.47,86.5625
2973.68,86.5625
2957.89,87.1875
2942.11,87.5
2926.32,87.8125
2910.53,87.5
2894.74,87.5
2878.95,87.5
2863.16,87.5
2847.37,87.8125
2831.58,87.8125
2815.79,88.125
2800.0,88.4375
2784.21,89.6875
2768.42,85.625
2752.63,88.125
2736.84,88.4375
2721.05,88.75
2705.26,89.0625
2689.47,89.375
2673.68,89.375
2657.89,89.6875
2642.11,89.6875
2626.32,90.0
2610.53,90.3125
2594.74,90.625
2578.95,90.625
2563.16,90.3125
2547.37,89.6875
2531.58,88.125
2515.79,90.3125
2500.0,90.9375
2484.21,90.9375
2468.42,90.3125
2452.63,90.3125
2436.84,90.625
2421.05,90.9375
2405.26,91.5625
2389.47,91.25
2373.68,90.0
2357.89,90.3125
2342.11,90.3125
2326.32,90.625
2310.53,90.9375
2294.74,91.5625
2278.95,91.875
2263.16,91.5625
2247.37,90.9375
2231.58,90.9375
2215.79,91.25
2200.0,91.5625
2184.21,91.875
2168.42,91.875
2152.63,89.6875
2136.84,91.5625
2121.05,91.875
2105.26,92.1875
2089.47,92.8125
2073.68,87.1875
2057.89,92.5
2042.11,93.125
2026.32,69.375
2010.53,83.4375
1994.74,69.375
1978.95,81.25
1963.16,85.9375
1947.37,87.5
1931.58,87.5
1915.79,77.1875
1900.0,68.125
1884.21,56.25
1868.42,28.125
1852.63,26.5625
1836.84,51.875
1821.05,74.375
1805.26,84.375
1789.47,86.25
1773.68,80.625
1757.89,57.1875
1742.11,49.375
1726.32,62.5
1710.53,77.1875
1694.74,80.0
1678.95,83.125
1663.16,84.6875
1647.37,85.625
1631.58,64.0625
1615.79,81.875
1600.0,83.75
1584.21,86.25
1568.42,87.1875
1552.63,86.5625
1536.84,83.4375
1521.05,73.125
1505.26,79.0625
1489.47,82.5
1473.68,80.0
1457.89,85.625
1442.11,83.4375
1426.32,85.9375
1410.53,85.3125
1394.74,79.375
1378.95,86.25
1363.16,88.125
1347.37,88.4375
1331.58,88.4375
1315.79,88.75
1300.0,87.5
1284.21,89.0625
1268.42,89.375
1252.63,90.0
1236.84,90.3125
1221.05,90.9375
1205.26,86.25
1189.47,87.8125
1173.68,54.375
1157.89,82.8125
1142.11,85.625
1126.32,87.1875
1110.53,74.0625
1094.74,85.625
1078.95,87.5
1063.16,88.4375
1047.37,89.6875
1031.58,89.6875
1015.79,87.8125
1000.0,69.0625
984.211,81.875
968.421,49.375
952.632,70.625
936.842,85.0
921.053,89.0625
905.263,89.0625
889.474,62.1875
873.684,85.3125
857.895,84.6875
842.105,77.5
826.316,86.875
810.526,92.1875
794.737,93.75
778.947,94.0625
763.158,94.0625
747.368,93.75
731.579,93.75
715.789,93.75
700,94.0625
684.211,94.0625
668.421,94.0625
652.632,94.0625
636.842,89.0625
621.053,91.875
605.263,94.0625
589.474,80.625
573.684,94.0625
557.895,85.9375
542.105,93.4375
526.316,94.0625
510.526,94.0625
494.737,93.75
478.947,93.4375
463.158,93.4375
447.368,90.625
431.579,84.375
415.789,80.9375
400.0,79.6875

File: 5-cholesten-3beta-yl heptyl carbonate.csv
Wavenumber,Intensity
4000.0,0.0
3984.21,94.6875
3968.42,93.75
3952.63,93.75
3936.84,93.75
3921.05,93.4375
3905.26,93.4375
3889.47,92.8125
3873.68,92.5
3857.89,92.5
3842.11,92.1875
3826.32,92.1875
3810.53,91.875
3794.74,92.1875
3778.95,91.875
3763.16,91.875
3747.37,91.5625
3731.58,90.9375
3715.79,90.9375
3700.0,90.9375
3684.21,90.9375
3668.42,90.3125
3652.63,90.0
3636.84,89.0625
3621.05,88.75
3605.26,88.4375
3589.47,87.5
3573.68,87.1875
3557.89,86.875
3542.11,86.25
3526.32,85.9375
3510.53,85.3125
3494.74,84.6875
3478.95,84.375
3463.16,84.375
3447.37,84.375
3431.58,85.0
3415.79,85.9375
3400.0,86.5625
3384.21,88.125
3368.42,89.375
3352.63,89.375
3336.84,87.5
3321.05,85.3125
3305.26,75.3125
3289.47,32.5
3273.68,8.75
3257.89,4.6875
3242.11,9.6875
3226.32,20.3125
3210.53,17.8125
3194.74,26.5625
3178.95,73.75
3163.16,84.6875
3147.37,88.75
3131.58,89.6875
3115.79,89.0625
3100.0,90.0
3084.21,90.0
3068.42,90.0
3052.63,90.625
3036.84,91.25
3021.05,91.5625
3005.26,91.875
2989.47,93.125
2973.68,93.4375
2957.89,93.4375
2942.11,93.4375
2926.32,93.75
2910.53,93.4375
2894.74,93.4375
2878.95,93.125
2863.16,93.125
2847.37,93.125
2831.58,93.4375
2815.79,93.4375
2800.0,93.4375
2784.21,93.125
2768.42,93.125
2752.63,93.4375
2736.84,93.75
2721.05,94.0625
2705.26,94.0625
2689.47,94.0625
2673.68,94.0625
2657.89,94.0625
2642.11,94.0625
2626.32,94.0625
2610.53,94.375
2594.74,94.375
2578.95,94.375
2563.16,94.375
2547.37,94.6875
2531.58,94.6875
2515.79,94.6875
2500.0,94.6875
2484.21,94.6875
2468.42,94.6875
2452.63,95.0
2436.84,94.6875
2421.05,94.6875
2405.26,94.375
2389.47,94.375
2373.68,94.375
2357.89,94.0625
2342.11,93.75
2326.32,93.4375
2310.53,92.8125
2294.74,90.9375
2278.95,81.5625
2263.16,40.625
2247.37,45.625
2231.58,82.5
2215.79,90.0
2200.0,90.9375
2184.21,91.5625
2168.42,91.875
2152.63,92.1875
2136.84,93.125
2121.05,93.75
2105.26,93.75
2089.47,94.0625
2073.68,94.375
2057.89,94.375
2042.11,94.375
2026.32,94.0625
2010.53,93.4375
1994.74,93.4375
1978.95,93.4375
1963.16,93.4375
1947.37,94.0625
1931.58,93.75
1915.79,91.875
1900.0,87.5
1884.21,66.25
1868.42,42.5
1852.63,49.0625
1836.84,65.625
1821.05,80.0
1805.26,88.75
1789.47,86.875
1773.68,73.75
1757.89,64.375
1742.11,62.8125
1726.32,71.5625
1710.53,76.875
1694.74,82.1875
1678.95,80.0
1663.16,74.375
1647.37,78.125
1631.58,71.25
1615.79,52.8125
1600.0,36.875
1584.21,35.3125
1568.42,30.625
1552.63,52.5
1536.84,68.4375
1521.05,79.0625
1505.26,81.875
1489.47,84.0625
1473.68,87.1875
1457.89,87.1875
1442.11,87.1875
1426.32,88.4375
1410.53,85.3125
1394.74,89.6875
1378.95,88.4375
1363.16,90.9375
1347.37,86.875
1331.58,88.125
1315.79,88.125
1300.0,88.75
1284.21,88.4375
1268.42,81.875
1252.63,82.8125
1236.84,80.0
1221.05,70.9375
1205.26,80.0
1189.47,70.9375
1173.68,80.9375
1157.89,75.625
1142.11,80.3125
1126.32,85.625
1110.53,87.1875
1094.74,88.4375
1078.95,88.125
1063.16,89.375
1047.37,91.25
1031.58,90.625
1015.79,88.125
1000.0,89.0625
984.211,90.9375
968.421,91.5625
952.632,85.3125
936.842,81.25
921.053,90.9375
905.263,91.875
889.474,91.5625
873.684,89.6875
857.895,87.5
842.105,84.6875
826.316,90.3125
810.526,93.125
794.737,94.375
778.947,94.375
763.158,93.75
747.368,93.75
731.579,93.125
715.789,93.125
700,94.375
684.211,94.375
668.421,92.8125
652.632,92.1875
636.842,92.1875
621.053,92.5
605.263,93.125
589.474,92.8125
573.684,91.875
557.895,91.875
542.105,90.9375
526.316,90.0
510.526,88.75
494.737,88.4375
478.947,88.125
463.158,87.8125
447.368,87.1875
431.579,82.8125
415.789,73.4375
400.0,67.1875

File: 5-cholesten-3beta-yl nonyl carbonate.csv
Wavenumber,Intensity
4000.0,0.0
3984.21,94.0625
3968.42,93.125
3952.63,93.125
3936.84,93.4375
3921.05,92.8125
3905.26,92.5
3889.47,92.1875
3873.68,92.1875
3857.89,91.875
3842.11,91.5625
3826.32,91.5625
3810.53,91.5625
3794.74,91.5625
3778.95,91.5625
3763.16,91.5625
3747.37,91.25
3731.58,90.9375
3715.79,90.9375
3700.0,90.9375
3684.21,90.625
3668.42,90.3125
3652.63,90.0
3636.84,89.0625
3621.05,88.4375
3605.26,88.125
3589.47,87.8125
3573.68,87.1875
3557.89,87.1875
3542.11,86.25
3526.32,86.25
3510.53,85.625
3494.74,84.6875
3478.95,84.375
3463.16,84.0625
3447.37,84.0625
3431.58,84.6875
3415.79,85.9375
3400.0,86.5625
3384.21,88.4375
3368.42,89.6875
3352.63,89.6875
3336.84,87.8125
3321.05,85.625
3305.26,75.3125
3289.47,35.3125
3273.68,10.3125
3257.89,5.0
3242.11,9.0625
3226.32,20.625
3210.53,17.1875
3194.74,25.3125
3178.95,71.5625
3163.16,83.4375
3147.37,87.8125
3131.58,89.0625
3115.79,88.125
3100.0,88.75
3084.21,88.75
3068.42,89.0625
3052.63,89.375
3036.84,90.0
3021.05,90.625
3005.26,91.25
2989.47,92.1875
2973.68,92.5
2957.89,92.8125
2942.11,92.8125
2926.32,93.125
2910.53,92.8125
2894.74,92.5
2878.95,92.1875
2863.16,92.1875
2847.37,92.1875
2831.58,92.5
2815.79,92.8125
2800.0,92.8125
2784.21,92.5
2768.42,92.5
2752.63,92.8125
2736.84,92.8125
2721.05,93.125
2705.26,93.125
2689.47,93.125
2673.68,93.125
2657.89,93.125
2642.11,93.125
2626.32,93.125
2610.53,93.4375
2594.74,93.4375
2578.95,93.4375
2563.16,93.75
2547.37,93.75
2531.58,94.0625
2515.79,94.0625
2500.0,94.0625
2484.21,94.0625
2468.42,94.0625
2452.63,94.0625
2436.84,94.0625
2421.05,93.75
2405.26,93.75
2389.47,93.4375
2373.68,93.4375
2357.89,93.125
2342.11,93.125
2326.32,92.8125
2310.53,92.5
2294.74,90.9375
2278.95,85.625
2263.16,55.3125
2247.37,46.5625
2231.58,73.4375
2215.79,86.5625
2200.0,89.6875
2184.21,90.0
2168.42,90.625
2152.63,90.9375
2136.84,91.5625
2121.05,91.875
2105.26,92.1875
2089.47,92.8125
2073.68,93.4375
2057.89,93.125
2042.11,93.125
2026.32,92.8125
2010.53,92.8125
1994.74,92.5
1978.95,92.5
1963.16,92.1875
1947.37,92.5
1931.58,92.1875
1915.79,90.3125
1900.0,85.625
1884.21,64.6875
1868.42,40.9375
1852.63,46.875
1836.84,61.875
1821.05,78.4375
1805.26,87.8125
1789.47,87.1875
1773.68,84.0625
1757.89,66.875
1742.11,60.0
1726.32,72.1875
1710.53,81.25
1694.74,84.375
1678.95,84.6875
1663.16,81.25
1647.37,82.8125
1631.58,78.75
1615.79,70.0
1600.0,59.0625
1584.21,57.1875
1568.42,58.4375
1552.63,78.4375
1536.84,86.25
1521.05,89.375
1505.26,88.4375
1489.47,89.6875
1473.68,90.625
1457.89,90.3125
1442.11,90.3125
1426.32,90.3125
1410.53,88.4375
1394.74,90.625
1378.95,89.6875
1363.16,90.9375
1347.37,90.9375
1331.58,90.9375
1315.79,90.9375
1300.0,91.25
1284.21,90.625
1268.42,86.25
1252.63,86.25
1236.84,86.25
1221.05,85.625
1205.26,88.125
1189.47,83.75
1173.68,84.0625
1157.89,81.25
1142.11,84.6875
1126.32,89.0625
1110.53,90.3125
1094.74,90.0
1078.95,89.6875
1063.16,90.3125
1047.37,91.25
1031.58,90.9375
1015.79,90.625
1000.0,90.9375
984.211,91.5625
968.421,91.875
952.632,87.5
936.842,80.9375
921.053,90.9375
905.263,91.875
889.474,90.9375
873.684,89.375
857.895,87.1875
842.105,80.0
826.316,88.75
810.526,92.5
794.737,93.75
778.947,93.75
763.158,93.125
747.368,93.125
731.579,93.125
715.789,92.8125
700,93.125
684.211,91.25
668.421,91.875
652.632,90.625
636.842,90.3125
621.053,90.3125
605.263,91.25
589.474,91.875
573.684,91.25
557.895,90.625
542.105,89.375
526.316,86.875
510.526,85.625
494.737,85.625
478.947,84.375
463.158,83.4375
447.368,83.75
431.579,80.9375
415.789,69.375
400.0,61.5625

File: 6-chloro-2-quinolinecarbonitrile.csv
Wavenumber,Intensity
4000.0,0.0
3984.21,70.0
3968.42,70.0
3952.63,69.6875
3936.84,69.375
3921.05,69.0625
3905.26,68.75
3889.47,68.4375
3873.68,68.125
3857.89,67.1875
3842.11,66.875
3826.32,68.125
3810.53,67.1875
3794.74,66.875
3778.95,66.875
3763.16,66.875
3747.37,66.875
3731.58,66.5625
3715.79,66.875
3700.0,67.1875
3684.21,66.875
3668.42,66.5625
3652.63,66.25
3636.84,66.5625
3621.05,65.9375
3605.26,65.625
3589.47,64.6875
3573.68,64.375
3557.89,64.0625
3542.11,64.375
3526.32,64.0625
3510.53,63.4375
3494.74,62.5
3478.95,62.5
3463.16,62.5
3447.37,61.5625
3431.58,61.875
3415.79,62.5
3400.0,62.1875
3384.21,63.4375
3368.42,61.5625
3352.63,60.9375
3336.84,60.0
3321.05,56.875
3305.26,50.625
3289.47,27.5
3273.68,10.0
3257.89,4.6875
3242.11,9.375
3226.32,23.4375
3210.53,17.1875
3194.74,28.125
3178.95,65.0
3163.16,70.625
3147.37,72.1875
3131.58,71.875
3115.79,71.25
3100.0,72.1875
3084.21,71.5625
3068.42,71.5625
3052.63,72.1875
3036.84,72.8125
3021.05,73.4375
3005.26,73.75
2989.47,74.0625
2973.68,74.6875
2957.89,75.0
2942.11,75.3125
2926.32,75.3125
2910.53,75.625
2894.74,75.9375
2878.95,75.9375
2863.16,75.9375
2847.37,76.25
2831.58,76.25
2815.79,76.875
2800.0,77.1875
2784.21,79.375
2768.42,60.9375
2752.63,76.25
2736.84,77.5
2721.05,78.125
2705.26,78.75
2689.47,79.0625
2673.68,79.375
2657.89,80.0
2642.11,80.3125
2626.32,80.3125
2610.53,80.9375
2594.74,81.25
2578.95,81.5625
2563.16,81.25
2547.37,80.625
2531.58,80.0
2515.79,80.3125
2500.0,82.1875
2484.21,82.5
2468.42,82.8125
2452.63,83.125
2436.84,82.8125
2421.05,82.5
2405.26,82.8125
2389.47,83.4375
2373.68,84.0625
2357.89,85.0
2342.11,83.4375
2326.32,78.125
2310.53,82.5
2294.74,80.0
2278.95,83.75
2263.16,85.0
2247.37,85.0
2231.58,85.0
2215.79,85.0
2200.0,85.3125
2184.21,85.625
2168.42,85.9375
2152.63,86.25
2136.84,86.25
2121.05,86.25
2105.26,89.0625
2089.47,82.1875
2073.68,72.5
2057.89,71.875
2042.11,72.1875
2026.32,50.9375
2010.53,78.75
1994.74,78.75
1978.95,81.25
1963.16,83.4375
1947.37,87.1875
1931.58,89.6875
1915.79,94.375
1900.0,22.5
1884.21,53.4375
1868.42,41.25
1852.63,40.3125
1836.84,60.9375
1821.05,74.0625
1805.26,80.625
1789.47,82.8125
1773.68,77.8125
1757.89,64.0625
1742.11,36.25
1726.32,68.75
1710.53,77.8125
1694.74,80.625
1678.95,62.5
1663.16,75.3125
1647.37,78.4375
1631.58,78.4375
1615.79,84.375
1600.0,77.8125
1584.21,85.9375
1568.42,87.1875
1552.63,89.0625
1536.84,85.0
1521.05,67.8125
1505.26,50.9375
1489.47,82.1875
1473.68,64.0625
1457.89,82.1875
1442.11,86.25
1426.32,81.5625
1410.53,86.25
1394.74,81.25
1378.95,86.5625
1363.16,90.0
1347.37,93.4375
1331.58,26.5625
1315.79,67.8125
1300.0,77.8125
1284.21,82.5
1268.42,84.0625
1252.63,85.3125
1236.84,85.9375
1221.05,86.875
1205.26,86.875
1189.47,75.0
1173.68,84.6875
1157.89,85.3125
1142.11,86.875
1126.32,86.875
1110.53,87.1875
1094.74,65.625
1078.95,59.6875
1063.16,51.25
1047.37,84.6875
1031.58,82.8125
1015.79,79.375
1000.0,31.5625
984.211,39.375
968.421,79.6875
952.632,62.5
936.842,72.1875
921.053,85.0
905.263,86.25
889.474,86.875
873.684,86.875
857.895,85.0
842.105,82.5
826.316,80.9375
810.526,89.375
794.737,90.3125
778.947,70.0
763.158,90.9375
747.368,79.6875
731.579,85.0
715.789,88.4375
700,89.375
684.211,89.375
668.421,88.75
652.632,88.4375
636.842,88.75
621.053,75.9375
605.263,88.4375
589.474,89.6875
573.684,89.6875
557.895,89.375
542.105,86.25
526.316,83.4375
510.526,83.4375
494.737,87.1875
478.947,82.1875
463.158,78.75
447.368,74.375
431.579,62.1875
415.789,58.125
400.0,58.4375