Folder: IR_CNN/data/public/sdbs/processed/samples (part 3)

File: 8,10-diacetoxy-2,3-epoxy-4,10a,12-trihydroxy-1,1,4,12-tetramethylperhydro-7,8a-ethanobenz(f)azulene.csv
Wavenumber,Intensity
4000.0,0.0
3984.21,94.0625
3968.42,94.0625
3952.63,93.75
3936.84,93.75
3921.05,93.75
3905.26,94.0625
3889.47,93.4375
3873.68,93.125
3857.89,93.4375
3842.11,93.4375
3826.32,93.4375
3810.53,93.4375
3794.74,94.0625
3778.95,93.4375
3763.16,93.4375
3747.37,92.8125
3731.58,92.5
3715.79,91.5625
3700.0,89.375
3684.21,84.0625
3668.42,60.3125
3652.63,50.3125
3636.84,43.4375
3621.05,33.75
3605.26,51.5625
3589.47,47.5
3573.68,34.6875
3557.89,35.3125
3542.11,57.1875
3526.32,66.25
3510.53,72.5
3494.74,77.5
3478.95,79.6875
3463.16,81.25
3447.37,82.5
3431.58,83.4375
3415.79,84.6875
3400.0,85.9375
3384.21,85.9375
3368.42,87.1875
3352.63,87.1875
3336.84,84.6875
3321.05,78.4375
3305.26,65.625
3289.47,36.5625
3273.68,8.4375
3257.89,5.625
3242.11,11.5625
3226.32,29.6875
3210.53,25.9375
3194.74,37.5
3178.95,79.0625
3163.16,85.9375
3147.37,88.4375
3131.58,89.375
3115.79,88.4375
3100.0,89.0625
3084.21,89.0625
3068.42,89.375
3052.63,90.625
3036.84,90.9375
3021.05,91.5625
3005.26,92.5
2989.47,93.125
2973.68,92.8125
2957.89,92.8125
2942.11,92.8125
2926.32,93.125
2910.53,93.125
2894.74,93.4375
2878.95,93.125
2863.16,93.4375
2847.37,93.4375
2831.58,93.75
2815.79,93.75
2800.0,93.75
2784.21,93.75
2768.42,93.75
2752.63,93.75
2736.84,93.75
2721.05,93.75
2705.26,94.0625
2689.47,94.375
2673.68,94.0625
2657.89,94.0625
2642.11,94.375
2626.32,94.6875
2610.53,94.375
2594.74,94.6875
2578.95,94.6875
2563.16,94.6875
2547.37,94.6875
2531.58,94.6875
2515.79,94.6875
2500.0,94.6875
2484.21,95.0
2468.42,94.6875
2452.63,94.6875
2436.84,94.375
2421.05,94.375
2405.26,94.0625
2389.47,94.0625
2373.68,93.75
2357.89,93.4375
2342.11,92.5
2326.32,91.5625
2310.53,91.5625
2294.74,89.0625
2278.95,76.875
2263.16,44.6875
2247.37,8.125
2231.58,13.4375
2215.79,54.6875
2200.0,77.1875
2184.21,83.75
2168.42,86.5625
2152.63,89.0625
2136.84,89.0625
2121.05,89.375
2105.26,91.25
2089.47,92.5
2073.68,93.4375
2057.89,93.4375
2042.11,93.75
2026.32,93.75
2010.53,93.4375
1994.74,93.125
1978.95,92.5
1963.16,92.1875
1947.37,92.1875
1931.58,91.5625
1915.79,89.6875
1900.0,85.0
1884.21,58.125
1868.42,36.25
1852.63,43.4375
1836.84,49.6875
1821.05,67.1875
1805.26,77.1875
1789.47,76.875
1773.68,63.4375
1757.89,46.25
1742.11,30.0
1726.32,33.4375
1710.53,50.625
1694.74,70.625
1678.95,66.5625
1663.16,71.25
1647.37,70.3125
1631.58,65.9375
1615.79,55.0
1600.0,41.25
1584.21,8.4375
1568.42,13.75
1552.63,25.9375
1536.84,60.625
1521.05,61.25
1505.26,70.3125
1489.47,56.5625
1473.68,58.125
1457.89,70.0
1442.11,50.9375
1426.32,68.75
1410.53,47.8125
1394.74,51.875
1378.95,59.6875
1363.16,71.875
1347.37,37.1875
1331.58,75.625
1315.79,74.375
1300.0,55.0
1284.21,22.5
1268.42,53.4375
1252.63,55.625
1236.84,77.1875
1221.05,69.0625
1205.26,74.6875
1189.47,73.4375
1173.68,82.5
1157.89,65.0
1142.11,29.375
1126.32,59.6875
1110.53,70.9375
1094.74,61.875
1078.95,59.0625
1063.16,63.75
1047.37,78.4375
1031.58,61.25
1015.79,90.0
1000.0,91.5625
984.211,85.0
968.421,82.5
952.632,78.75
936.842,93.4375
921.053,93.75
905.263,73.125
889.474,90.625
873.684,85.3125
857.895,91.25
842.105,88.125
826.316,91.875
810.526,90.625
794.737,90.3125
778.947,93.75
763.158,91.25
747.368,85.9375
731.579,78.125
715.789,79.0625
700,73.125
684.211,60.625
668.421,61.25
652.632,66.5625
636.842,70.0
621.053,72.5
605.263,82.5
589.474,86.25
573.684,86.5625
557.895,86.5625
542.105,86.25
526.316,82.5
510.526,83.4375
494.737,83.125
478.947,81.25
463.158,82.5
447.368,81.5625
431.579,76.875
415.789,72.1875
400.0,69.6875

File: 10-acetoxy-2,3-epoxy-4,9,10a,12-tetrahydroxy-1,1,4,12-tetramethylperhydro-7,8a-ethanobenz(f)azulene.csv
Wavenumber,Intensity
4000.0,0.0
3984.21,91.5625
3968.42,91.5625
3952.63,92.1875
3936.84,91.875
3921.05,91.875
3905.26,92.1875
3889.47,92.1875
3873.68,92.1875
3857.89,92.5
3842.11,92.5
3826.32,93.125
3810.53,93.125
3794.74,93.4375
3778.95,93.4375
3763.16,93.125
3747.37,91.875
3731.58,89.6875
3715.79,64.375
3700.0,72.5
3684.21,72.1875
3668.42,67.1875
3652.63,42.8125
3636.84,47.8125
3621.05,56.25
3605.26,54.6875
3589.47,55.9375
3573.68,64.6875
3557.89,73.4375
3542.11,77.8125
3526.32,80.3125
3510.53,80.3125
3494.74,79.375
3478.95,81.875
3463.16,83.4375
3447.37,84.0625
3431.58,84.6875
3415.79,85.0
3400.0,85.9375
3384.21,86.875
3368.42,88.125
3352.63,83.75
3336.84,85.625
3321.05,82.1875
3305.26,66.875
3289.47,33.75
3273.68,11.5625
3257.89,5.0
3242.11,10.0
3226.32,23.125
3210.53,18.75
3194.74,30.625
3178.95,77.1875
3163.16,85.625
3147.37,89.375
3131.58,90.0
3115.79,89.375
3100.0,89.6875
3084.21,89.375
3068.42,89.6875
3052.63,90.625
3036.84,90.9375
3021.05,91.875
3005.26,92.5
2989.47,92.8125
2973.68,93.125
2957.89,93.75
2942.11,93.75
2926.32,93.4375
2910.53,93.4375
2894.74,93.4375
2878.95,93.75
2863.16,93.75
2847.37,93.4375
2831.58,93.4375
2815.79,93.75
2800.0,94.0625
2784.21,93.75
2768.42,93.75
2752.63,94.0625
2736.84,93.75
2721.05,94.0625
2705.26,93.75
2689.47,93.75
2673.68,94.0625
2657.89,94.0625
2642.11,94.0625
2626.32,94.0625
2610.53,94.375
2594.74,94.375
2578.95,94.375
2563.16,94.375
2547.37,94.375
2531.58,94.375
2515.79,94.6875
2500.0,94.6875
2484.21,94.6875
2468.42,94.375
2452.63,94.375
2436.84,94.6875
2421.05,94.6875
2405.26,94.6875
2389.47,95.0
2373.68,94.6875
2357.89,94.6875
2342.11,94.375
2326.32,94.375
2310.53,94.0625
2294.74,94.0625
2278.95,93.75
2263.16,93.4375
2247.37,92.5
2231.58,89.375
2215.79,73.125
2200.0,34.375
2184.21,61.5625
2168.42,85.0
2152.63,82.5
2136.84,67.5
2121.05,81.25
2105.26,89.0625
2089.47,90.9375
2073.68,91.875
2057.89,92.8125
2042.11,93.125
2026.32,93.4375
2010.53,93.4375
1994.74,93.4375
1978.95,93.4375
1963.16,93.125
1947.37,93.125
1931.58,92.5
1915.79,90.625
1900.0,83.75
1884.21,69.0625
1868.42,47.1875
1852.63,50.9375
1836.84,65.0
1821.05,76.25
1805.26,85.0
1789.47,80.3125
1773.68,80.625
1757.89,52.5
1742.11,40.3125
1726.32,67.5
1710.53,75.625
1694.74,80.3125
1678.95,73.75
1663.16,73.75
1647.37,72.5
1631.58,69.375
1615.79,58.4375
1600.0,46.5625
1584.21,71.25
1568.42,79.375
1552.63,85.9375
1536.84,81.25
1521.05,87.8125
1505.26,83.75
1489.47,84.6875
1473.68,82.5
1457.89,88.125
1442.11,81.5625
1426.32,79.0625
1410.53,76.25
1394.74,77.1875
1378.95,81.875
1363.16,78.75
1347.37,68.75
1331.58,80.0
1315.79,85.0
1300.0,84.6875
1284.21,82.5
1268.42,68.75
1252.63,79.375
1236.84,67.5
1221.05,88.125
1205.26,75.9375
1189.47,89.0625
1173.68,87.8125
1157.89,76.5625
1142.11,81.5625
1126.32,82.8125
1110.53,80.0
1094.74,75.9375
1078.95,76.875
1063.16,88.4375
1047.37,82.8125
1031.58,82.8125
1015.79,86.25
1000.0,89.0625
984.211,91.5625
968.421,93.4375
952.632,94.0625
936.842,88.4375
921.053,71.25
905.263,89.0625
889.474,82.1875
873.684,92.1875
857.895,82.1875
842.105,87.1875
826.316,91.5625
810.526,94.375
794.737,94.6875
778.947,94.375
763.158,93.125
747.368,89.6875
731.579,82.5
715.789,89.375
700,86.5625
684.211,80.0
668.421,79.6875
652.632,80.0
636.842,80.9375
621.053,80.9375
605.263,81.25
589.474,83.125
573.684,84.6875
557.895,79.6875
542.105,84.375
526.316,84.6875
510.526,83.75
494.737,83.125
478.947,81.875
463.158,80.9375
447.368,79.6875
431.579,78.4375
415.789,72.1875
400.0,67.8125

File: (1,2-epoxyethyl)benzene.csv
Wavenumber,Intensity
4000.0,0.0
3984.21,92.1875
3968.42,91.875
3952.63,92.1875
3936.84,92.1875
3921.05,91.875
3905.26,92.1875
3889.47,92.5
3873.68,91.5625
3857.89,91.5625
3842.11,92.5
3826.32,92.8125
3810.53,92.5
3794.74,93.125
3778.95,92.8125
3763.16,91.875
3747.37,92.1875
3731.58,92.1875
3715.79,92.1875
3700.0,92.5
3684.21,92.5
3668.42,92.1875
3652.63,92.5
3636.84,93.125
3621.05,93.4375
3605.26,93.75
3589.47,93.75
3573.68,94.0625
3557.89,94.375
3542.11,94.375
3526.32,94.0625
3510.53,94.0625
3494.74,93.75
3478.95,93.4375
3463.16,93.125
3447.37,92.8125
3431.58,92.5
3415.79,92.1875
3400.0,90.9375
3384.21,85.9375
3368.42,74.375
3352.63,59.0625
3336.84,51.875
3321.05,60.9375
3305.26,58.125
3289.47,61.5625
3273.68,83.75
3257.89,84.0625
3242.11,75.0
3226.32,90.9375
3210.53,93.125
3194.74,93.75
3178.95,94.375
3163.16,94.375
3147.37,94.6875
3131.58,94.375
3115.79,94.6875
3100.0,94.6875
3084.21,94.6875
3068.42,94.6875
3052.63,94.375
3036.84,94.0625
3021.05,94.0625
3005.26,94.375
2989.47,94.6875
2973.68,94.6875
2957.89,94.375
2942.11,94.375
2926.32,94.375
2910.53,94.6875
2894.74,94.6875
2878.95,94.6875
2863.16,94.375
2847.37,94.375
2831.58,94.0625
2815.79,93.75
2800.0,93.4375
2784.21,92.8125
2768.42,93.4375
2752.63,93.4375
2736.84,94.0625
2721.05,94.6875
2705.26,94.375
2689.47,94.6875
2673.68,94.6875
2657.89,94.375
2642.11,94.6875
2626.32,93.75
2610.53,92.8125
2594.74,91.875
2578.95,90.625
2563.16,89.0625
2547.37,87.8125
2531.58,90.625
2515.79,93.4375
2500.0,93.4375
2484.21,91.5625
2468.42,89.6875
2452.63,88.4375
2436.84,90.0
2421.05,93.125
2405.26,93.75
2389.47,92.8125
2373.68,90.9375
2357.89,89.375
2342.11,90.0
2326.32,93.125
2310.53,93.125
2294.74,91.875
2278.95,89.6875
2263.16,89.6875
2247.37,90.3125
2231.58,89.0625
2215.79,90.625
2200.0,82.8125
2184.21,89.6875
2168.42,90.3125
2152.63,90.625
2136.84,91.5625
2121.05,91.875
2105.26,90.9375
2089.47,89.375
2073.68,79.6875
2057.89,81.25
2042.11,89.0625
2026.32,89.375
2010.53,91.25
1994.74,90.9375
1978.95,90.3125
1963.16,91.5625
1947.37,89.6875
1931.58,86.5625
1915.79,35.625
1900.0,75.3125
1884.21,43.125
1868.42,78.75
1852.63,41.25
1836.84,85.0
1821.05,90.9375
1805.26,91.25
1789.47,85.625
1773.68,55.3125
1757.89,52.1875
1742.11,84.375
1726.32,90.3125
1710.53,91.875
1694.74,88.75
1678.95,84.375
1663.16,75.0
1647.37,84.6875
1631.58,76.875
1615.79,88.75
1600.0,87.5
1584.21,70.0
1568.42,68.125
1552.63,87.5
1536.84,89.6875
1521.05,87.5
1505.26,47.8125
1489.47,83.4375
1473.68,83.4375
1457.89,85.3125
1442.11,81.5625
1426.32,77.8125
1410.53,78.125
1394.74,77.8125
1378.95,89.0625
1363.16,90.3125
1347.37,88.125
1331.58,72.5
1315.79,77.8125
1300.0,90.0
1284.21,89.6875
1268.42,76.25
1252.63,84.0625
1236.84,85.0
1221.05,77.1875
1205.26,44.0625
1189.47,75.9375
1173.68,85.625
1157.89,89.375
1142.11,88.4375
1126.32,84.375
1110.53,75.9375
1094.74,76.875
1078.95,61.875
1063.16,18.4375
1047.37,13.125
1031.58,58.4375
1015.79,74.0625
1000.0,78.4375
984.211,62.1875
968.421,53.4375
952.632,59.375
936.842,75.0
921.053,72.8125
905.263,29.375
889.474,5.0
873.684,33.125
857.895,66.25
842.105,79.0625
826.316,68.75
810.526,5.0
794.737,49.375
778.947,82.1875
763.158,85.625
747.368,89.6875
731.579,91.875
715.789,91.875
700,91.5625
684.211,92.8125
668.421,90.9375
652.632,81.875
636.842,43.4375
621.053,82.1875
605.263,86.875
589.474,63.4375
573.684,45
557.895,83.75
542.105,89.6875
526.316,91.5625
510.526,90.9375
494.737,91.25
478.947,92.1875
463.158,94.0625
447.368,92.8125
431.579,85.9375
415.789,81.875
400.0,80.9375

File: (dimethylaminomethyl)ferrocene.csv
Wavenumber,Intensity
4000.0,0.0
3984.21,88.75
3968.42,86.25
3952.63,79.0625
3936.84,80.625
3921.05,88.4375
3905.26,90.625
3889.47,90.9375
3873.68,90.9375
3857.89,90.9375
3842.11,91.25
3826.32,91.5625
3810.53,91.25
3794.74,90.625
3778.95,86.875
3763.16,83.4375
3747.37,83.4375
3731.58,84.6875
3715.79,83.75
3700.0,81.875
3684.21,79.6875
3668.42,77.1875
3652.63,75.0
3636.84,72.5
3621.05,70.3125
3605.26,68.75
3589.47,66.875
3573.68,65.625
3557.89,65.0
3542.11,65.3125
3526.32,65.9375
3510.53,66.25
3494.74,66.5625
3478.95,67.5
3463.16,66.875
3447.37,66.25
3431.58,65.9375
3415.79,65.625
3400.0,64.0625
3384.21,47.8125
3368.42,24.6875
3352.63,44.375
3336.84,66.5625
3321.05,72.5
3305.26,62.8125
3289.47,23.125
3273.68,18.4375
3257.89,9.6875
3242.11,30.9375
3226.32,36.25
3210.53,23.75
3194.74,33.4375
3178.95,9.6875
3163.16,25.9375
3147.37,4.6875
3131.58,12.5
3115.79,48.4375
3100.0,61.25
3084.21,73.4375
3068.42,84.375
3052.63,87.8125
3036.84,87.8125
3021.05,89.0625
3005.26,90.3125
2989.47,90.9375
2973.68,90.0
2957.89,88.75
2942.11,89.0625
2926.32,89.6875
2910.53,90.625
2894.74,90.3125
2878.95,91.25
2863.16,92.1875
2847.37,91.875
2831.58,91.5625
2815.79,91.875
2800.0,90.0
2784.21,86.875
2768.42,88.4375
2752.63,91.25
2736.84,90.9375
2721.05,93.125
2705.26,93.4375
2689.47,90.9375
2673.68,90.9375
2657.89,90.0
2642.11,91.25
2626.32,93.75
2610.53,93.4375
2594.74,93.125
2578.95,93.4375
2563.16,94.375
2547.37,94.6875
2531.58,94.6875
2515.79,94.6875
2500.0,94.6875
2484.21,94.375
2468.42,93.75
2452.63,92.8125
2436.84,92.5
2421.05,92.8125
2405.26,92.8125
2389.47,93.4375
2373.68,93.4375
2357.89,92.8125
2342.11,91.5625
2326.32,89.375
2310.53,84.6875
2294.74,80.0
2278.95,77.1875
2263.16,77.5
2247.37,75.625
2231.58,72.8125
2215.79,70.0
2200.0,66.5625
2184.21,55.0
2168.42,42.5
2152.63,54.6875
2136.84,59.0625
2121.05,60.625
2105.26,61.25
2089.47,66.5625
2073.68,74.0625
2057.89,81.875
2042.11,85.9375
2026.32,87.5
2010.53,88.75
1994.74,90.0
1978.95,90.3125
1963.16,89.6875
1947.37,89.0625
1931.58,86.5625
1915.79,83.75
1900.0,73.4375
1884.21,30.9375
1868.42,19.375
1852.63,12.1875
1836.84,36.875
1821.05,44.0625
1805.26,65.0
1789.47,53.125
1773.68,62.1875
1757.89,54.375
1742.11,65.3125
1726.32,64.0625
1710.53,32.8125
1694.74,63.4375
1678.95,65.0
1663.16,83.75
1647.37,76.875
1631.58,84.375
1615.79,72.1875
1600.0,38.75
1584.21,30.9375
1568.42,62.1875
1552.63,52.1875
1536.84,50.0
1521.05,73.125
1505.26,83.75
1489.47,81.25
1473.68,56.875
1457.89,27.8125
1442.11,65.625
1426.32,71.5625
1410.53,40.9375
1394.74,65.9375
1378.95,51.5625
1363.16,45.3125
1347.37,78.4375
1331.58,81.875
1315.79,68.75
1300.0,44.375
1284.21,9.0625
1268.42,15.625
1252.63,5.9375
1236.84,24.375
1221.05,17.5
1205.26,71.5625
1189.47,84.375
1173.68,81.875
1157.89,85.0
1142.11,85.3125
1126.32,51.5625
1110.53,84.6875
1094.74,90.0
1078.95,84.6875
1063.16,80.0
1047.37,73.4375
1031.58,52.5
1015.79,20.3125
1000.0,17.1875
984.211,9.375
968.421,5.9375
952.632,17.8125
936.842,50.3125
921.053,80.9375
905.263,88.125
889.474,64.0625
873.684,57.5
857.895,87.5
842.105,94.375
826.316,94.6875
810.526,94.0625
794.737,93.75
778.947,93.75
763.158,93.75
747.368,93.4375
731.579,94.0625
715.789,93.4375
700,87.5
684.211,92.1875
668.421,91.875
652.632,91.875
636.842,92.1875
621.053,92.5
605.263,92.5
589.474,89.375
573.684,68.4375
557.895,18.75
542.105,13.4375
526.316,9.0625
510.526,6.875
494.737,38.125
478.947,59.6875
463.158,76.5625
447.368,82.1875
431.579,71.25
415.789,60.0
400.0,54.375

File: methyl 3,3-dimethyl-7-oxo-6-phenoxyacetamido-4-thia-1-azabicyclo[3.2.0]heptane-2-carboxylate 4-oxide.csv
Wavenumber,Intensity
4000.0,0.0
3984.21,91.25
3968.42,91.25
3952.63,90.9375
3936.84,90.9375
3921.05,90.9375
3905.26,90.625
3889.47,90.625
3873.68,90.3125
3857.89,90.3125
3842.11,90.625
3826.32,90.3125
3810.53,90.3125
3794.74,90.3125
3778.95,90.3125
3763.16,90.3125
3747.37,90.0
3731.58,89.375
3715.79,89.6875
3700.0,89.6875
3684.21,90.0
3668.42,90.0
3652.63,89.375
3636.84,88.75
3621.05,88.75
3605.26,88.4375
3589.47,87.8125
3573.68,87.5
3557.89,80.625
3542.11,81.5625
3526.32,85.3125
3510.53,85.3125
3494.74,85.0
3478.95,84.6875
3463.16,84.6875
3447.37,84.375
3431.58,84.375
3415.79,85.0
3400.0,85.3125
3384.21,86.5625
3368.42,86.5625
3352.63,85.9375
3336.84,84.375
3321.05,81.875
3305.26,73.4375
3289.47,40.625
3273.68,13.4375
3257.89,5.3125
3242.11,9.6875
3226.32,25.3125
3210.53,19.0625
3194.74,30.0
3178.95,75.625
3163.16,83.75
3147.37,87.5
3131.58,88.125
3115.79,87.5
3100.0,87.8125
3084.21,87.5
3068.42,88.125
3052.63,88.75
3036.84,89.0625
3021.05,89.375
3005.26,90.0
2989.47,90.9375
2973.68,91.25
2957.89,91.5625
2942.11,91.875
2926.32,91.875
2910.53,91.875
2894.74,91.875
2878.95,91.875
2863.16,92.1875
2847.37,92.1875
2831.58,92.1875
2815.79,92.1875
2800.0,92.5
2784.21,92.8125
2768.42,92.8125
2752.63,93.125
2736.84,93.125
2721.05,93.4375
2705.26,93.4375
2689.47,93.75
2673.68,93.75
2657.89,94.0625
2642.11,94.0625
2626.32,93.75
2610.53,94.0625
2594.74,94.0625
2578.95,94.375
2563.16,94.6875
2547.37,94.6875
2531.58,94.6875
2515.79,95.0
2500.0,94.6875
2484.21,94.6875
2468.42,94.6875
2452.63,94.6875
2436.84,94.6875
2421.05,94.6875
2405.26,94.375
2389.47,93.4375
2373.68,91.875
2357.89,84.0625
2342.11,65.0
2326.32,73.75
2310.53,88.4375
2294.74,92.1875
2278.95,91.5625
2263.16,75.9375
2247.37,76.875
2231.58,89.6875
2215.79,85.3125
2200.0,57.8125
2184.21,81.5625
2168.42,89.6875
2152.63,92.1875
2136.84,93.125
2121.05,93.4375
2105.26,93.75
2089.47,94.375
2073.68,94.375
2057.89,87.1875
2042.11,88.75
2026.32,92.8125
2010.53,93.4375
1994.74,92.5
1978.95,89.375
1963.16,70.0
1947.37,71.25
1931.58,87.8125
1915.79,72.5
1900.0,84.6875
1884.21,72.1875
1868.42,50.3125
1852.63,52.8125
1836.84,70.625
1821.05,83.4375
1805.26,90.9375
1789.47,92.1875
1773.68,88.125
1757.89,75.0
1742.11,64.375
1726.32,81.25
1710.53,87.8125
1694.74,89.0625
1678.95,90.0
1663.16,82.8125
1647.37,82.8125
1631.58,77.1875
1615.79,84.6875
1600.0,88.4375
1584.21,90.9375
1568.42,86.875
1552.63,74.0625
1536.84,68.125
1521.05,67.8125
1505.26,76.875
1489.47,85.0
1473.68,85.3125
1457.89,82.8125
1442.11,83.75
1426.32,89.6875
1410.53,89.375
1394.74,92.8125
1378.95,93.125
1363.16,92.8125
1347.37,85.9375
1331.58,85.625
1315.79,86.5625
1300.0,91.25
1284.21,77.1875
1268.42,80.625
1252.63,90.0
1236.84,92.1875
1221.05,93.4375
1205.26,86.25
1189.47,90.9375
1173.68,92.1875
1157.89,91.25
1142.11,92.1875
1126.32,92.8125
1110.53,93.125
1094.74,93.4375
1078.95,93.125
1063.16,92.8125
1047.37,93.125
1031.58,93.4375
1015.79,93.125
1000.0,93.75
984.211,94.375
968.421,94.375
952.632,94.375
936.842,93.4375
921.053,89.6875
905.263,93.125
889.474,92.8125
873.684,67.8125
857.895,89.0625
842.105,86.25
826.316,89.6875
810.526,92.8125
794.737,87.5
778.947,93.75
763.158,93.4375
747.368,91.25
731.579,88.75
715.789,90.9375
700,93.4375
684.211,94.0625
668.421,92.8125
652.632,90.9375
636.842,88.75
621.053,88.75
605.263,89.6875
589.474,91.25
573.684,92.8125
557.895,92.1875
542.105,90.625
526.316,90.0
510.526,89.375
494.737,90.0
478.947,89.0625
463.158,86.5625
447.368,80.3125
431.579,69.375
415.789,62.5
400.0,60.625

File: p-(ethoxycarbonyloxy)benzoic acid.csv
Wavenumber,Intensity
4000.0,0.0
3984.21,81.25
3968.42,81.875
3952.63,82.5
3936.84,82.5
3921.05,82.5
3905.26,82.8125
3889.47,83.4375
3873.68,84.0625
3857.89,84.0625
3842.11,84.0625
3826.32,85.3125
3810.53,85.3125
3794.74,86.25
3778.95,86.5625
3763.16,86.5625
3747.37,86.875
3731.58,86.5625
3715.79,86.875
3700.0,86.5625
3684.21,86.25
3668.42,84.0625
3652.63,84.375
3636.84,86.875
3621.05,87.1875
3605.26,87.1875
3589.47,86.25
3573.68,85.9375
3557.89,85.9375
3542.11,85.9375
3526.32,85.3125
3510.53,84.375
3494.74,83.125
3478.95,81.5625
3463.16,79.0625
3447.37,76.5625
3431.58,74.6875
3415.79,72.1875
3400.0,67.5
3384.21,60.0
3368.42,58.75
3352.63,58.125
3336.84,58.125
3321.05,51.5625
3305.26,42.1875
3289.47,28.4375
3273.68,12.5
3257.89,5.3125
3242.11,8.75
3226.32,20.3125
3210.53,16.875
3194.74,22.5
3178.95,50.625
3163.16,57.5
3147.37,63.75
3131.58,66.25
3115.79,65.625
3100.0,64.6875
3084.21,59.0625
3068.42,59.375
3052.63,62.5
3036.84,64.6875
3021.05,65.3125
3005.26,63.125
2989.47,63.125
2973.68,66.25
2957.89,70.625
2942.11,73.75
2926.32,76.5625
2910.53,78.4375
2894.74,79.6875
2878.95,81.875
2863.16,83.75
2847.37,85.625
2831.58,87.5
2815.79,87.8125
2800.0,88.125
2784.21,88.75
2768.42,90.0
2752.63,90.9375
2736.84,91.5625
2721.05,92.1875
2705.26,93.75
2689.47,93.4375
2673.68,93.75
2657.89,93.125
2642.11,93.4375
2626.32,94.0625
2610.53,94.6875
2594.74,94.6875
2578.95,94.6875
2563.16,94.375
2547.37,94.375
2531.58,92.1875
2515.79,91.25
2500.0,91.25
2484.21,91.5625
2468.42,91.875
2452.63,91.5625
2436.84,90.625
2421.05,89.6875
2405.26,88.4375
2389.47,87.5
2373.68,86.25
2357.89,83.4375
2342.11,78.75
2326.32,70.9375
2310.53,54.6875
2294.74,15.625
2278.95,4.6875
2263.16,28.75
2247.37,71.25
2231.58,79.375
2215.79,72.1875
2200.0,27.5
2184.21,10.3125
2168.42,18.125
2152.63,42.1875
2136.84,65.3125
2121.05,75.3125
2105.26,83.4375
2089.47,85.9375
2073.68,41.25
2057.89,61.5625
2042.11,64.375
2026.32,86.5625
2010.53,89.0625
1994.74,87.5
1978.95,88.75
1963.16,91.5625
1947.37,91.5625
1931.58,74.6875
1915.79,88.125
1900.0,88.4375
1884.21,64.375
1868.42,49.0625
1852.63,54.0625
1836.84,47.1875
1821.05,34.0625
1805.26,47.1875
1789.47,64.0625
1773.68,76.5625
1757.89,63.125
1742.11,30.3125
1726.32,74.0625
1710.53,74.375
1694.74,63.75
1678.95,42.5
1663.16,32.1875
1647.37,18.4375
1631.58,15.3125
1615.79,11.25
1600.0,10.3125
1584.21,18.75
1568.42,31.875
1552.63,35.0
1536.84,27.1875
1521.05,47.1875
1505.26,59.0625
1489.47,69.375
1473.68,78.4375
1457.89,47.1875
1442.11,32.1875
1426.32,61.5625
1410.53,68.125
1394.74,50.625
1378.95,51.875
1363.16,70.0
1347.37,75.9375
1331.58,80.9375
1315.79,53.125
1300.0,55.9375
1284.21,71.25
1268.42,76.875
1252.63,75.9375
1236.84,51.25
1221.05,50.625
1205.26,73.75
1189.47,79.375
1173.68,75.625
1157.89,73.4375
1142.11,61.875
1126.32,52.8125
1110.53,56.5625
1094.74,44.6875
1078.95,72.8125
1063.16,80.3125
1047.37,81.5625
1031.58,45.3125
1015.79,77.1875
1000.0,61.5625
984.211,80.3125
968.421,84.6875
952.632,88.4375
936.842,80.0
921.053,33.4375
905.263,62.8125
889.474,89.6875
873.684,87.1875
857.895,43.4375
842.105,82.5
826.316,90.625
810.526,93.4375
794.737,84.375
778.947,93.4375
763.158,91.5625
747.368,47.5
731.579,87.8125
715.789,78.4375
700,92.5
684.211,92.1875
668.421,91.5625
652.632,90.9375
636.842,89.6875
621.053,83.125
605.263,55.625
589.474,75.9375
573.684,87.5
557.895,87.8125
542.105,53.75
526.316,87.5
510.526,88.4375
494.737,86.875
478.947,85.9375
463.158,84.6875
447.368,81.875
431.579,76.5625
415.789,63.4375
400.0,54.375

File: p-ethoxyphenyl p-(methoxycarbonyloxy)benzoate.csv
Wavenumber,Intensity
4000.0,0.0
3984.21,89.6875
3968.42,89.0625
3952.63,89.375
3936.84,90.0
3921.05,88.75
3905.26,88.75
3889.47,89.375
3873.68,89.6875
3857.89,89.375
3842.11,90.0
3826.32,90.0
3810.53,89.6875
3794.74,90.3125
3778.95,89.6875
3763.16,90.0
3747.37,89.375
3731.58,89.375
3715.79,90.3125
3700.0,89.6875
3684.21,89.375
3668.42,89.0625
3652.63,89.0625
3636.84,89.0625
3621.05,88.75
3605.26,89.0625
3589.47,89.0625
3573.68,89.375
3557.89,89.375
3542.11,89.0625
3526.32,89.375
3510.53,89.375
3494.74,89.0625
3478.95,89.0625
3463.16,88.125
3447.37,87.8125
3431.58,87.1875
3415.79,87.1875
3400.0,86.25
3384.21,85.3125
3368.42,85.625
3352.63,82.5
3336.84,82.1875
3321.05,78.75
3305.26,68.125
3289.47,32.8125
3273.68,12.1875
3257.89,5.9375
3242.11,9.6875
3226.32,23.125
3210.53,17.8125
3194.74,26.25
3178.95,74.375
3163.16,84.375
3147.37,88.4375
3131.58,89.375
3115.79,87.5
3100.0,88.4375
3084.21,88.4375
3068.42,88.75
3052.63,89.375
3036.84,89.375
3021.05,90.0
3005.26,91.25
2989.47,91.5625
2973.68,92.1875
2957.89,92.1875
2942.11,92.5
2926.32,92.5
2910.53,92.5
2894.74,92.5
2878.95,92.8125
2863.16,92.8125
2847.37,92.8125
2831.58,92.8125
2815.79,93.125
2800.0,93.125
2784.21,93.125
2768.42,93.125
2752.63,93.125
2736.84,93.125
2721.05,93.4375
2705.26,93.4375
2689.47,93.75
2673.68,93.75
2657.89,94.0625
2642.11,93.75
2626.32,93.75
2610.53,94.0625
2594.74,94.375
2578.95,94.375
2563.16,94.375
2547.37,94.375
2531.58,94.375
2515.79,94.375
2500.0,94.375
2484.21,94.375
2468.42,94.6875
2452.63,95.0
2436.84,94.6875
2421.05,94.6875
2405.26,94.6875
2389.47,94.6875
2373.68,94.375
2357.89,94.0625
2342.11,93.125
2326.32,91.875
2310.53,86.875
2294.74,68.75
2278.95,46.875
2263.16,72.5
2247.37,56.5625
2231.58,56.875
2215.79,81.25
2200.0,86.875
2184.21,88.4375
2168.42,91.5625
2152.63,92.1875
2136.84,92.5
2121.05,92.8125
2105.26,93.4375
2089.47,92.8125
2073.68,82.8125
2057.89,82.1875
2042.11,91.25
2026.32,93.125
2010.53,93.4375
1994.74,93.4375
1978.95,93.125
1963.16,91.25
1947.37,78.75
1931.58,54.6875
1915.79,76.5625
1900.0,83.4375
1884.21,66.25
1868.42,41.5625
1852.63,43.125
1836.84,52.1875
1821.05,79.6875
1805.26,85.0
1789.47,85.9375
1773.68,80.3125
1757.89,70.0
1742.11,62.5
1726.32,76.25
1710.53,82.5
1694.74,82.5
1678.95,81.5625
1663.16,76.875
1647.37,69.0625
1631.58,64.0625
1615.79,52.8125
1600.0,32.5
1584.21,35.3125
1568.42,37.5
1552.63,49.375
1536.84,63.75
1521.05,56.25
1505.26,39.6875
1489.47,34.6875
1473.68,50.9375
1457.89,57.1875
1442.11,56.875
1426.32,69.6875
1410.53,76.25
1394.74,79.6875
1378.95,70.625
1363.16,80.3125
1347.37,77.1875
1331.58,45
1315.79,55.625
1300.0,67.1875
1284.21,67.5
1268.42,79.0625
1252.63,78.75
1236.84,70.3125
1221.05,80.9375
1205.26,83.4375
1189.47,84.0625
1173.68,83.75
1157.89,83.4375
1142.11,60.9375
1126.32,80.0
1110.53,80.9375
1094.74,85.625
1078.95,85.9375
1063.16,81.875
1047.37,71.25
1031.58,85.625
1015.79,86.875
1000.0,85.9375
984.211,86.25
968.421,88.125
952.632,75.9375
936.842,86.25
921.053,78.125
905.263,82.5
889.474,85.3125
873.684,87.8125
857.895,85.9375
842.105,77.1875
826.316,73.125
810.526,89.375
794.737,90.625
778.947,91.5625
763.158,92.1875
747.368,92.8125
731.579,93.4375
715.789,92.5
700,92.5
684.211,93.125
668.421,93.75
652.632,90.3125
636.842,89.0625
621.053,90.3125
605.263,92.8125
589.474,94.375
573.684,86.25
557.895,91.5625
542.105,92.1875
526.316,91.25
510.526,90.9375
494.737,90.9375
478.947,92.5
463.158,94.6875
447.368,92.1875
431.579,86.25
415.789,81.875
400.0,79.6875