Folder: IR_CNN/data/public/sdbs/processed/samples

Note: README.md
The standard format for spectroscopic data found online and used by the Chemotion repository is JCAMP-DX file. Therefore I looked into the format to understand how to extract the data. JCAMP-DX files use only printable ASCII characters, it consists of a data label and an associated data set. It starts with ##TITLE= and ending with ##END=;

The relevant information that we should extract from a JCAMP-DX file for our purposes:
• ##TITLE= : Description of the spectrum (required as first LDR)
• ##DATA TYPE= : Specifies the type of data (e.g., INFRARED SPECTRUM, MASS SPECTRUM)
• ##SAMPLING PROCEDURE= : Instrument details
• ##XUNITS= : Defines abscissa units (e.g., 1/CM for wavenumber)
• ##YUNITS= : Defines ordinate units (e.g., ABSORBANCE, TRANSMITTANCE)
• ##XFACTOR=, ##YFACTOR= : Scaling factors
• ##FIRSTX=, ##LASTX= : First and last abscissa values
• ##NPOINTS= : Number of data points
• ##XYDATA= : For ordinates at equal X-intervals
• (X++(Y..Y)) : For data with equally spaced X values
• ##DELTAX= spacing of X-intervals

The SMILES name for the compound of the respective spectra is in the JSON metadata (for Chemotion JCAMP files). The 2025 Punjabi J paper provides the code for extracting spectroscopic data from JCAMP files into their custom SpectraCarrier() class. I would suggest to use their code to extract the data from JCAMP files of the chemotion repository. In this code they include a lot of data preprocessing that should be looked into. We can then format the data into the class or other data structure we will use in our algorithm.

Additionally since our goal is to determine the functional groups we can should convert the SMILES name in SMARTS format which makes it much easier to search for the present functional groups.

From the meetings we concluded we would want to collect our own data, talking with the chemists of our group I concluded that the data would come in a .spc format. I tried to find code or a program online which extracted that relevant data but I didn’t manage to make this work. Although this is not necessary right now it could serve as an SSA in the future.

File: 2,2,2-trichloroethyl 3,3-dimethyl-7-oxo-6-phenylacetamido-4-thia-1-azabicyclo[3.2.0]heptane-2-carboxylate 4-oxide.csv
Wavenumber,Intensity
4000.0,0.0
3984.21,92.1875
3968.42,92.1875
3952.63,92.1875
3936.84,91.875
3921.05,91.875
3905.26,91.875
3889.47,91.5625
3873.68,91.25
3857.89,91.25
3842.11,91.25
3826.32,91.25
3810.53,91.5625
3794.74,91.5625
3778.95,91.25
3763.16,90.9375
3747.37,90.625
3731.58,90.3125
3715.79,90.0
3700.0,89.6875
3684.21,89.375
3668.42,89.375
3652.63,89.375
3636.84,89.6875
3621.05,89.0625
3605.26,88.4375
3589.47,78.75
3573.68,77.5
3557.89,85.3125
3542.11,86.25
3526.32,86.25
3510.53,85.625
3494.74,85.0
3478.95,85.0
3463.16,84.6875
3447.37,84.6875
3431.58,84.6875
3415.79,85.0
3400.0,86.25
3384.21,87.1875
3368.42,87.1875
3352.63,84.375
3336.84,84.6875
3321.05,80.9375
3305.26,70.0
3289.47,41.5625
3273.68,13.125
3257.89,5.3125
3242.11,10.0
3226.32,26.25
3210.53,19.6875
3194.74,30.3125
3178.95,75.9375
3163.16,84.0625
3147.37,87.8125
3131.58,88.4375
3115.79,87.8125
3100.0,88.4375
3084.21,88.4375
3068.42,88.4375
3052.63,89.0625
3036.84,89.375
3021.05,90.0
3005.26,90.9375
2989.47,91.5625
2973.68,91.5625
2957.89,92.1875
2942.11,92.5
2926.32,92.5
2910.53,92.1875
2894.74,92.5
2878.95,92.1875
2863.16,92.1875
2847.37,92.5
2831.58,92.5
2815.79,92.8125
2800.0,92.8125
2784.21,92.8125
2768.42,93.125
2752.63,93.4375
2736.84,93.4375
2721.05,93.4375
2705.26,93.75
2689.47,93.75
2673.68,93.75
2657.89,94.0625
2642.11,94.0625
2626.32,94.0625
2610.53,94.375
2594.74,94.375
2578.95,94.375
2563.16,94.375
2547.37,94.6875
2531.58,95.0
2515.79,94.6875
2500.0,94.6875
2484.21,94.6875
2468.42,94.6875
2452.63,94.375
2436.84,94.375
2421.05,94.0625
2405.26,93.75
2389.47,93.125
2373.68,91.875
2357.89,89.0625
2342.11,80.3125
2326.32,58.125
2310.53,55.0
2294.74,68.125
2278.95,51.5625
2263.16,82.5
2247.37,89.0625
2231.58,91.5625
2215.79,91.25
2200.0,81.875
2184.21,58.75
2168.42,78.75
2152.63,88.125
2136.84,90.9375
2121.05,91.875
2105.26,92.5
2089.47,93.125
2073.68,93.75
2057.89,94.0625
2042.11,94.0625
2026.32,93.75
2010.53,93.4375
1994.74,92.8125
1978.95,92.1875
1963.16,90.0
1947.37,81.5625
1931.58,66.5625
1915.79,69.0625
1900.0,78.125
1884.21,72.1875
1868.42,48.75
1852.63,50.9375
1836.84,68.4375
1821.05,79.6875
1805.26,88.4375
1789.47,90.9375
1773.68,87.5
1757.89,71.5625
1742.11,63.75
1726.32,79.375
1710.53,78.125
1694.74,82.5
1678.95,83.4375
1663.16,83.125
1647.37,76.25
1631.58,79.6875
1615.79,84.375
1600.0,86.25
1584.21,88.125
1568.42,87.5
1552.63,87.5
1536.84,87.5
1521.05,85.3125
1505.26,69.0625
1489.47,80.3125
1473.68,79.6875
1457.89,84.0625
1442.11,79.6875
1426.32,71.875
1410.53,80.0
1394.74,86.5625
1378.95,90.625
1363.16,90.625
1347.37,89.375
1331.58,84.375
1315.79,87.1875
1300.0,87.5
1284.21,85.3125
1268.42,80.3125
1252.63,76.5625
1236.84,85.9375
1221.05,85.625
1205.26,90.625
1189.47,91.5625
1173.68,91.25
1157.89,90.625
1142.11,90.0
1126.32,88.75
1110.53,88.125
1094.74,91.875
1078.95,92.8125
1063.16,91.875
1047.37,90.3125
1031.58,93.4375
1015.79,92.5
1000.0,91.875
984.211,91.5625
968.421,87.1875
952.632,90.0
936.842,93.4375
921.053,89.6875
905.263,66.875
889.474,85.625
873.684,89.375
857.895,75.9375
842.105,68.125
826.316,74.375
810.526,83.125
794.737,92.1875
778.947,94.6875
763.158,93.4375
747.368,92.1875
731.579,91.875
715.789,91.875
700,92.1875
684.211,93.75
668.421,92.1875
652.632,85.9375
636.842,85.625
621.053,88.4375
605.263,90.0
589.474,90.0
573.684,90.3125
557.895,91.25
542.105,91.5625
526.316,91.5625
510.526,92.5
494.737,93.125
478.947,91.25
463.158,87.5
447.368,82.8125
431.579,79.6875
415.789,77.5
400.0,75.9375

File: 2,3-epoxy-1,1,4,12-tetramethylperhydro-7,8a-ethanobenz(f)azulene-4,8,10,10a,12-pentol.csv
Wavenumber,Intensity
4000.0,0.0
3984.21,87.5
3968.42,86.5625
3952.63,86.25
3936.84,85.625
3921.05,84.375
3905.26,83.75
3889.47,82.5
3873.68,82.1875
3857.89,81.5625
3842.11,80.3125
3826.32,80.0
3810.53,79.375
3794.74,78.4375
3778.95,77.1875
3763.16,74.6875
3747.37,69.0625
3731.58,60.9375
3715.79,47.1875
3700.0,36.25
3684.21,24.0625
3668.42,11.875
3652.63,8.4375
3636.84,6.875
3621.05,5.625
3605.26,4.6875
3589.47,7.1875
3573.68,9.0625
3557.89,11.25
3542.11,13.4375
3526.32,15.9375
3510.53,17.8125
3494.74,21.25
3478.95,24.0625
3463.16,26.875
3447.37,31.875
3431.58,39.0625
3415.79,47.5
3400.0,55.0
3384.21,62.5
3368.42,68.75
3352.63,72.5
3336.84,69.6875
3321.05,68.125
3305.26,41.5625
3289.47,20.0
3273.68,17.5
3257.89,16.875
3242.11,22.8125
3226.32,35.0
3210.53,49.6875
3194.74,71.25
3178.95,76.5625
3163.16,80.0
3147.37,81.25
3131.58,81.875
3115.79,81.875
3100.0,82.5
3084.21,83.4375
3068.42,83.4375
3052.63,85.0
3036.84,85.9375
3021.05,86.5625
3005.26,87.1875
2989.47,87.5
2973.68,88.125
2957.89,87.8125
2942.11,88.4375
2926.32,88.75
2910.53,89.375
2894.74,89.375
2878.95,90.0
2863.16,90.3125
2847.37,90.3125
2831.58,90.3125
2815.79,90.3125
2800.0,90.9375
2784.21,91.25
2768.42,90.9375
2752.63,91.5625
2736.84,91.5625
2721.05,91.5625
2705.26,91.5625
2689.47,91.5625
2673.68,91.25
2657.89,90.9375
2642.11,91.5625
2626.32,91.875
2610.53,92.1875
2594.74,92.5
2578.95,92.5
2563.16,92.5
2547.37,92.5
2531.58,92.8125
2515.79,93.125
2500.0,93.4375
2484.21,93.4375
2468.42,93.75
2452.63,94.0625
2436.84,94.375
2421.05,94.375
2405.26,94.375
2389.47,94.6875
2373.68,95.0
2357.89,94.6875
2342.11,94.375
2326.32,94.0625
2310.53,94.0625
2294.74,94.0625
2278.95,93.125
2263.16,91.5625
2247.37,89.375
2231.58,87.8125
2215.79,87.8125
2200.0,88.75
2184.21,89.375
2168.42,88.4375
2152.63,85.9375
2136.84,81.25
2121.05,77.5
2105.26,76.5625
2089.47,76.875
2073.68,80.625
2057.89,85.0
2042.11,88.4375
2026.32,90.3125
2010.53,91.25
1994.74,90.9375
1978.95,90.625
1963.16,89.375
1947.37,88.125
1931.58,84.6875
1915.79,76.875
1900.0,62.1875
1884.21,38.125
1868.42,37.8125
1852.63,33.75
1836.84,34.375
1821.05,40.9375
1805.26,29.0625
1789.47,35.9375
1773.68,32.5
1757.89,31.25
1742.11,17.1875
1726.32,36.875
1710.53,51.875
1694.74,49.375
1678.95,42.8125
1663.16,40.3125
1647.37,50.3125
1631.58,47.8125
1615.79,56.25
1600.0,46.875
1584.21,50.9375
1568.42,50.9375
1552.63,46.5625
1536.84,44.375
1521.05,52.1875
1505.26,49.375
1489.47,35.625
1473.68,39.375
1457.89,44.375
1442.11,35.9375
1426.32,30.3125
1410.53,34.6875
1394.74,37.5
1378.95,38.4375
1363.16,35.3125
1347.37,11.875
1331.58,27.1875
1315.79,42.1875
1300.0,19.375
1284.21,17.8125
1268.42,32.8125
1252.63,47.1875
1236.84,62.8125
1221.05,42.8125
1205.26,33.125
1189.47,55.625
1173.68,65.0
1157.89,57.5
1142.11,54.0625
1126.32,68.4375
1110.53,51.5625
1094.74,35.625
1078.95,24.375
1063.16,41.25
1047.37,37.8125
1031.58,25.3125
1015.79,55.0
1000.0,68.75
984.211,79.0625
968.421,76.5625
952.632,67.5
936.842,85.625
921.053,83.75
905.263,48.75
889.474,66.25
873.684,81.875
857.895,77.1875
842.105,62.5
826.316,70.9375
810.526,54.0625
794.737,64.6875
778.947,70.3125
763.158,66.25
747.368,59.6875
731.579,44.6875
715.789,53.4375
700,51.5625
684.211,49.0625
668.421,44.0625
652.632,39.6875
636.842,37.8125
621.053,37.5
605.263,38.75
589.474,43.4375
573.684,48.4375
557.895,47.1875
542.105,37.8125
526.316,45.9375
510.526,47.8125
494.737,51.5625
478.947,58.125
463.158,62.5
447.368,62.1875
431.579,59.6875
415.789,60.625
400.0,64.6875

File: 2,3-epoxy-1,1,4,12-tetramethylperhydro-7,8a-ethanobenz(f)azulene-4,9,10,10a,12-pentol.csv
Wavenumber,Intensity
4000.0,0.0
3984.21,85.625
3968.42,85.3125
3952.63,86.5625
3936.84,84.6875
3921.05,85.0
3905.26,85.625
3889.47,85.9375
3873.68,86.25
3857.89,86.875
3842.11,86.875
3826.32,86.875
3810.53,87.8125
3794.74,86.875
3778.95,86.5625
3763.16,88.4375
3747.37,86.875
3731.58,85.0
3715.79,80.3125
3700.0,68.4375
3684.21,36.25
3668.42,10.0
3652.63,5.625
3636.84,19.375
3621.05,11.875
3605.26,10.3125
3589.47,21.5625
3573.68,29.375
3557.89,37.8125
3542.11,47.5
3526.32,55.3125
3510.53,60.3125
3494.74,63.75
3478.95,65.9375
3463.16,68.4375
3447.37,69.6875
3431.58,70.9375
3415.79,73.125
3400.0,75.3125
3384.21,76.875
3368.42,79.0625
3352.63,74.6875
3336.84,80.0
3321.05,70.625
3305.26,60.9375
3289.47,12.1875
3273.68,4.6875
3257.89,6.25
3242.11,8.75
3226.32,24.375
3210.53,25.9375
3194.74,42.8125
3178.95,75.0
3163.16,81.875
3147.37,84.6875
3131.58,85.3125
3115.79,84.6875
3100.0,84.375
3084.21,85.0
3068.42,85.0
3052.63,85.9375
3036.84,86.5625
3021.05,87.8125
3005.26,88.75
2989.47,90.0
2973.68,90.0
2957.89,89.6875
2942.11,89.6875
2926.32,89.6875
2910.53,89.6875
2894.74,89.6875
2878.95,90.3125
2863.16,90.9375
2847.37,90.625
2831.58,90.625
2815.79,91.25
2800.0,91.5625
2784.21,91.5625
2768.42,91.5625
2752.63,91.875
2736.84,92.1875
2721.05,92.1875
2705.26,92.1875
2689.47,92.1875
2673.68,92.1875
2657.89,92.1875
2642.11,92.5
2626.32,92.8125
2610.53,92.8125
2594.74,92.8125
2578.95,92.8125
2563.16,93.125
2547.37,93.125
2531.58,93.125
2515.79,93.4375
2500.0,93.4375
2484.21,93.4375
2468.42,93.4375
2452.63,93.4375
2436.84,93.75
2421.05,94.0625
2405.26,94.0625
2389.47,94.0625
2373.68,94.0625
2357.89,94.0625
2342.11,94.0625
2326.32,94.375
2310.53,94.375
2294.74,94.0625
2278.95,94.375
2263.16,94.6875
2247.37,94.6875
2231.58,94.6875
2215.79,94.375
2200.0,94.0625
2184.21,94.0625
2168.42,93.75
2152.63,93.75
2136.84,93.75
2121.05,93.75
2105.26,93.4375
2089.47,93.4375
2073.68,93.75
2057.89,93.4375
2042.11,93.4375
2026.32,93.4375
2010.53,93.4375
1994.74,93.4375
1978.95,93.125
1963.16,92.8125
1947.37,92.8125
1931.58,92.5
1915.79,90.0
1900.0,84.375
1884.21,59.6875
1868.42,46.25
1852.63,37.1875
1836.84,48.75
1821.05,63.4375
1805.26,68.125
1789.47,68.125
1773.68,60.9375
1757.89,32.1875
1742.11,18.75
1726.32,31.25
1710.53,34.375
1694.74,38.4375
1678.95,43.75
1663.16,32.1875
1647.37,41.5625
1631.58,48.75
1615.79,60.0
1600.0,51.5625
1584.21,46.5625
1568.42,67.1875
1552.63,54.6875
1536.84,37.8125
1521.05,52.5
1505.26,39.6875
1489.47,55.3125
1473.68,21.25
1457.89,65.625
1442.11,60.625
1426.32,29.6875
1410.53,57.1875
1394.74,18.4375
1378.95,24.375
1363.16,44.375
1347.37,53.75
1331.58,42.1875
1315.79,28.125
1300.0,59.375
1284.21,26.5625
1268.42,34.0625
1252.63,27.5
1236.84,24.6875
1221.05,71.25
1205.26,31.5625
1189.47,56.875
1173.68,55.0
1157.89,56.875
1142.11,71.875
1126.32,65.0
1110.53,32.1875
1094.74,39.6875
1078.95,43.75
1063.16,64.0625
1047.37,71.875
1031.58,26.875
1015.79,75.625
1000.0,48.4375
984.211,48.125
968.421,56.5625
952.632,60.0
936.842,86.25
921.053,91.875
905.263,79.0625
889.474,25.3125
873.684,83.125
857.895,41.25
842.105,86.875
826.316,90.625
810.526,94.0625
794.737,91.875
778.947,86.875
763.158,78.125
747.368,55.9375
731.579,47.8125
715.789,77.8125
700,66.25
684.211,56.875
668.421,55.3125
652.632,55.0
636.842,54.6875
621.053,55.3125
605.263,58.4375
589.474,64.375
573.684,55.0
557.895,42.8125
542.105,46.25
526.316,50.0
510.526,57.1875
494.737,61.5625
478.947,62.8125
463.158,60.9375
447.368,59.0625
431.579,56.875
415.789,57.1875
400.0,59.0625

File: 2,4-dimethyltetrahydrothiophene 1,1-dioxide.csv
Wavenumber,Intensity
4000.0,0.0
3984.21,93.75
3968.42,93.4375
3952.63,93.4375
3936.84,93.75
3921.05,93.75
3905.26,93.4375
3889.47,93.4375
3873.68,93.125
3857.89,93.4375
3842.11,93.4375
3826.32,93.4375
3810.53,93.125
3794.74,93.4375
3778.95,90.9375
3763.16,87.1875
3747.37,80.9375
3731.58,76.875
3715.79,78.125
3700.0,81.5625
3684.21,80.625
3668.42,81.5625
3652.63,85.3125
3636.84,87.5
3621.05,88.75
3605.26,89.375
3589.47,90.0
3573.68,90.3125
3557.89,90.9375
3542.11,91.25
3526.32,91.5625
3510.53,91.5625
3494.74,91.5625
3478.95,91.25
3463.16,90.9375
3447.37,90.9375
3431.58,90.9375
3415.79,91.25
3400.0,90.9375
3384.21,90.625
3368.42,90.0
3352.63,88.75
3336.84,87.1875
3321.05,82.8125
3305.26,67.8125
3289.47,36.5625
3273.68,37.1875
3257.89,34.6875
3242.11,54.6875
3226.32,59.0625
3210.53,62.1875
3194.74,81.5625
3178.95,88.4375
3163.16,91.25
3147.37,92.1875
3131.58,90.9375
3115.79,91.5625
3100.0,92.8125
3084.21,93.125
3068.42,93.125
3052.63,93.125
3036.84,93.125
3021.05,93.4375
3005.26,93.75
2989.47,93.75
2973.68,93.75
2957.89,93.75
2942.11,93.4375
2926.32,92.8125
2910.53,91.875
2894.74,91.5625
2878.95,92.1875
2863.16,92.5
2847.37,92.8125
2831.58,93.125
2815.79,93.4375
2800.0,92.8125
2784.21,92.1875
2768.42,92.5
2752.63,93.4375
2736.84,94.375
2721.05,94.375
2705.26,94.375
2689.47,94.375
2673.68,94.375
2657.89,94.375
2642.11,94.6875
2626.32,94.6875
2610.53,94.0625
2594.74,94.0625
2578.95,94.375
2563.16,94.375
2547.37,94.375
2531.58,94.6875
2515.79,94.6875
2500.0,94.375
2484.21,94.375
2468.42,94.375
2452.63,94.375
2436.84,94.375
2421.05,94.375
2405.26,94.6875
2389.47,94.6875
2373.68,95.0
2357.89,94.6875
2342.11,94.6875
2326.32,94.375
2310.53,94.0625
2294.74,94.0625
2278.95,93.75
2263.16,93.4375
2247.37,92.8125
2231.58,92.1875
2215.79,92.1875
2200.0,92.1875
2184.21,91.875
2168.42,91.5625
2152.63,90.9375
2136.84,89.6875
2121.05,87.1875
2105.26,86.25
2089.47,87.5
2073.68,89.6875
2057.89,91.5625
2042.11,93.125
2026.32,93.75
2010.53,94.375
1994.74,94.0625
1978.95,93.125
1963.16,93.125
1947.37,93.125
1931.58,91.5625
1915.79,90.625
1900.0,88.4375
1884.21,78.4375
1868.42,43.125
1852.63,35.9375
1836.84,63.125
1821.05,78.75
1805.26,62.8125
1789.47,72.8125
1773.68,84.0625
1757.89,67.5
1742.11,78.4375
1726.32,82.5
1710.53,73.125
1694.74,62.1875
1678.95,47.8125
1663.16,14.0625
1647.37,4.6875
1631.58,11.875
1615.79,31.5625
1600.0,31.25
1584.21,15.0
1568.42,43.75
1552.63,56.25
1536.84,40.9375
1521.05,61.5625
1505.26,75.625
1489.47,79.375
1473.68,78.4375
1457.89,66.25
1442.11,66.5625
1426.32,38.125
1410.53,7.8125
1394.74,10.3125
1378.95,15.0
1363.16,46.25
1347.37,56.875
1331.58,61.5625
1315.79,75.3125
1300.0,76.875
1284.21,84.6875
1268.42,78.125
1252.63,61.25
1236.84,85.3125
1221.05,86.875
1205.26,90.625
1189.47,92.1875
1173.68,92.5
1157.89,90.625
1142.11,84.6875
1126.32,75.625
1110.53,86.5625
1094.74,90.0
1078.95,85.0
1063.16,87.5
1047.37,85.9375
1031.58,80.3125
1015.79,72.1875
1000.0,81.25
984.211,87.1875
968.421,88.4375
952.632,85.9375
936.842,76.5625
921.053,43.4375
905.263,32.5
889.474,76.25
873.684,89.6875
857.895,92.8125
842.105,94.375
826.316,94.375
810.526,93.75
794.737,92.8125
778.947,90.9375
763.158,88.4375
747.368,67.5
731.579,46.5625
715.789,80.9375
700,87.1875
684.211,87.1875
668.421,85.9375
652.632,82.8125
636.842,79.6875
621.053,48.75
605.263,41.5625
589.474,81.875
573.684,78.4375
557.895,58.4375
542.105,53.125
526.316,61.875
510.526,69.375
494.737,76.25
478.947,69.375
463.158,62.1875
447.368,61.875
431.579,64.375
415.789,63.125
400.0,61.875

File: 2-mercaptopyridine N-oxide.csv
Wavenumber,Intensity
4000.0,0.0
3984.21,73.125
3968.42,73.125
3952.63,73.75
3936.84,74.0625
3921.05,70.9375
3905.26,71.5625
3889.47,70.9375
3873.68,70.625
3857.89,69.375
3842.11,68.75
3826.32,70.3125
3810.53,69.375
3794.74,69.0625
3778.95,69.0625
3763.16,67.5
3747.37,67.8125
3731.58,68.125
3715.79,67.5
3700.0,67.1875
3684.21,66.875
3668.42,66.25
3652.63,66.25
3636.84,65.9375
3621.05,65.9375
3605.26,65.0
3589.47,64.0625
3573.68,64.0625
3557.89,64.0625
3542.11,64.0625
3526.32,64.0625
3510.53,63.75
3494.74,63.4375
3478.95,63.4375
3463.16,63.75
3447.37,63.4375
3431.58,62.8125
3415.79,62.5
3400.0,63.4375
3384.21,58.125
3368.42,42.1875
3352.63,46.875
3336.84,40.625
3321.05,41.875
3305.26,39.0625
3289.47,22.8125
3273.68,9.375
3257.89,4.6875
3242.11,9.0625
3226.32,23.125
3210.53,16.5625
3194.74,29.375
3178.95,68.4375
3163.16,72.5
3147.37,74.375
3131.58,73.75
3115.79,72.5
3100.0,72.8125
3084.21,72.5
3068.42,72.5
3052.63,73.4375
3036.84,74.0625
3021.05,75.0
3005.26,75.3125
2989.47,76.25
2973.68,76.5625
2957.89,76.25
2942.11,74.0625
2926.32,72.8125
2910.53,76.875
2894.74,77.1875
2878.95,76.875
2863.16,77.1875
2847.37,77.1875
2831.58,77.1875
2815.79,78.125
2800.0,79.375
2784.21,79.0625
2768.42,79.375
2752.63,80.9375
2736.84,80.9375
2721.05,80.625
2705.26,82.1875
2689.47,82.1875
2673.68,80.9375
2657.89,80.625
2642.11,82.5
2626.32,83.4375
2610.53,83.125
2594.74,82.1875
2578.95,80.3125
2563.16,80.3125
2547.37,84.0625
2531.58,83.75
2515.79,82.5
2500.0,82.8125
2484.21,84.6875
2468.42,84.6875
2452.63,84.6875
2436.84,85.0
2421.05,85.0
2405.26,84.6875
2389.47,85.0
2373.68,86.5625
2357.89,86.875
2342.11,84.375
2326.32,84.375
2310.53,85.3125
2294.74,86.5625
2278.95,87.1875
2263.16,87.5
2247.37,87.5
2231.58,86.25
2215.79,86.5625
2200.0,87.1875
2184.21,88.125
2168.42,88.75
2152.63,88.4375
2136.84,88.75
2121.05,88.4375
2105.26,85.625
2089.47,84.375
2073.68,87.8125
2057.89,89.6875
2042.11,77.5
2026.32,84.0625
2010.53,85.0
1994.74,69.6875
1978.95,77.1875
1963.16,83.75
1947.37,85.0
1931.58,88.75
1915.79,89.6875
1900.0,86.5625
1884.21,55.0
1868.42,9.0625
1852.63,25.0
1836.84,50.3125
1821.05,65.3125
1805.26,13.4375
1789.47,43.4375
1773.68,58.125
1757.89,57.1875
1742.11,55.3125
1726.32,71.875
1710.53,79.375
1694.74,82.1875
1678.95,85.625
1663.16,86.25
1647.37,86.5625
1631.58,87.5
1615.79,86.25
1600.0,38.125
1584.21,40.625
1568.42,17.5
1552.63,50.0
1536.84,22.1875
1521.05,45.3125
1505.26,49.0625
1489.47,72.8125
1473.68,78.4375
1457.89,79.375
1442.11,72.5
1426.32,69.6875
1410.53,50.0
1394.74,67.8125
1378.95,69.375
1363.16,81.5625
1347.37,45.9375
1331.58,55.3125
1315.79,82.1875
1300.0,85.0
1284.21,64.6875
1268.42,78.4375
1252.63,87.5
1236.84,88.125
1221.05,87.5
1205.26,84.375
1189.47,89.375
1173.68,90.0
1157.89,90.0
1142.11,84.0625
1126.32,90.625
1110.53,91.25
1094.74,91.875
1078.95,91.875
1063.16,92.1875
1047.37,90.625
1031.58,84.375
1015.79,86.5625
1000.0,28.125
984.211,79.375
968.421,87.1875
952.632,89.0625
936.842,90.3125
921.053,80.625
905.263,26.25
889.474,30.625
873.684,75.625
857.895,83.75
842.105,79.375
826.316,85.625
810.526,38.75
794.737,86.875
778.947,91.5625
763.158,92.8125
747.368,92.5
731.579,92.8125
715.789,91.875
700,92.1875
684.211,92.8125
668.421,94.6875
652.632,90.3125
636.842,50.3125
621.053,88.4375
605.263,90.9375
589.474,79.6875
573.684,36.875
557.895,89.0625
542.105,92.1875
526.316,91.875
510.526,92.5
494.737,90.9375
478.947,86.875
463.158,85.9375
447.368,82.5
431.579,75.3125
415.789,73.75
400.0,75.625

File: 4,5-bis(isopropoxycarbonyl)-3-methyl-1-(1-naphthyl)-1H-1,2,3-triazolium perchlorate.csv
Wavenumber,Intensity
4000.0,0.0
3984.21,87.8125
3968.42,87.8125
3952.63,88.125
3936.84,87.8125
3921.05,87.5
3905.26,87.5
3889.47,88.125
3873.68,87.5
3857.89,87.5
3842.11,88.125
3826.32,88.125
3810.53,88.125
3794.74,87.5
3778.95,88.125
3763.16,87.5
3747.37,86.875
3731.58,86.25
3715.79,86.5625
3700.0,86.25
3684.21,85.9375
3668.42,84.6875
3652.63,84.0625
3636.84,83.4375
3621.05,84.375
3605.26,84.6875
3589.47,84.375
3573.68,84.6875
3557.89,84.6875
3542.11,85.0
3526.32,85.625
3510.53,85.625
3494.74,85.625
3478.95,85.3125
3463.16,84.6875
3447.37,84.375
3431.58,84.375
3415.79,84.375
3400.0,83.75
3384.21,83.125
3368.42,82.1875
3352.63,79.0625
3336.84,78.75
3321.05,74.6875
3305.26,58.75
3289.47,27.5
3273.68,10.625
3257.89,5.3125
3242.11,8.125
3226.32,18.125
3210.53,14.375
3194.74,20.625
3178.95,64.6875
3163.16,77.1875
3147.37,83.4375
3131.58,84.6875
3115.79,83.4375
3100.0,84.375
3084.21,84.375
3068.42,85.0
3052.63,85.9375
3036.84,86.875
3021.05,87.5
3005.26,88.75
2989.47,90.0
2973.68,90.625
2957.89,91.25
2942.11,91.5625
2926.32,91.5625
2910.53,91.5625
2894.74,91.5625
2878.95,91.5625
2863.16,91.5625
2847.37,91.5625
2831.58,91.5625
2815.79,91.875
2800.0,92.5
2784.21,92.1875
2768.42,92.1875
2752.63,93.125
2736.84,93.4375
2721.05,93.4375
2705.26,93.4375
2689.47,93.4375
2673.68,93.75
2657.89,93.75
2642.11,92.8125
2626.32,92.8125
2610.53,93.4375
2594.74,93.75
2578.95,93.75
2563.16,93.75
2547.37,93.75
2531.58,94.375
2515.79,94.375
2500.0,94.375
2484.21,94.375
2468.42,94.6875
2452.63,95.0
2436.84,94.375
2421.05,93.75
2405.26,93.4375
2389.47,93.75
2373.68,93.75
2357.89,93.4375
2342.11,93.4375
2326.32,92.8125
2310.53,91.5625
2294.74,85.0
2278.95,46.875
2263.16,33.125
2247.37,38.125
2231.58,78.4375
2215.79,85.9375
2200.0,87.5
2184.21,89.375
2168.42,90.625
2152.63,90.625
2136.84,90.625
2121.05,90.3125
2105.26,90.3125
2089.47,90.9375
2073.68,91.875
2057.89,80.3125
2042.11,77.8125
2026.32,86.25
2010.53,90.3125
1994.74,90.625
1978.95,90.625
1963.16,90.625
1947.37,89.6875
1931.58,81.5625
1915.79,86.875
1900.0,80.3125
1884.21,51.875
1868.42,28.75
1852.63,31.875
1836.84,48.4375
1821.05,66.5625
1805.26,76.875
1789.47,76.5625
1773.68,75.0
1757.89,48.75
1742.11,42.1875
1726.32,65.3125
1710.53,72.8125
1694.74,77.1875
1678.95,79.6875
1663.16,67.8125
1647.37,74.375
1631.58,75.9375
1615.79,57.5
1600.0,33.75
1584.21,40.625
1568.42,41.875
1552.63,71.875
1536.84,80.9375
1521.05,71.875
1505.26,80.3125
1489.47,81.5625
1473.68,76.5625
1457.89,66.875
1442.11,65.9375
1426.32,56.875
1410.53,63.4375
1394.74,35.0
1378.95,30.3125
1363.16,20.625
1347.37,20.3125
1331.58,25.9375
1315.79,41.5625
1300.0,62.5
1284.21,77.1875
1268.42,80.9375
1252.63,83.4375
1236.84,85.3125
1221.05,87.5
1205.26,86.875
1189.47,84.375
1173.68,88.125
1157.89,88.75
1142.11,88.75
1126.32,88.125
1110.53,86.875
1094.74,75.0
1078.95,85.9375
1063.16,87.5
1047.37,75.625
1031.58,84.375
1015.79,79.375
1000.0,90.9375
984.211,78.4375
968.421,70.625
952.632,85.625
936.842,77.5
921.053,72.1875
905.263,69.375
889.474,89.0625
873.684,89.6875
857.895,86.25
842.105,73.4375
826.316,84.6875
810.526,92.8125
794.737,94.375
778.947,94.0625
763.158,91.875
747.368,80.3125
731.579,91.5625
715.789,84.6875
700,54.6875
684.211,90.9375
668.421,90.9375
652.632,90.0
636.842,90.3125
621.053,91.5625
605.263,91.875
589.474,91.5625
573.684,91.875
557.895,90.625
542.105,88.4375
526.316,85.0
510.526,82.8125
494.737,85.0
478.947,89.0625
463.158,88.125
447.368,85.625
431.579,76.875
415.789,65.625
400.0,59.375