Folder: IR_CNN/data/public/sdbs/processed/samples (part 4)

File: p-ethoxyphenyl p-(pentyloxycarbonyloxy)benzoate.csv
Wavenumber,Intensity
4000.0,0.0
3984.21,92.1875
3968.42,91.875
3952.63,91.5625
3936.84,91.5625
3921.05,90.9375
3905.26,91.25
3889.47,91.25
3873.68,90.625
3857.89,90.9375
3842.11,90.3125
3826.32,90.0
3810.53,90.0
3794.74,89.6875
3778.95,89.375
3763.16,89.375
3747.37,89.0625
3731.58,88.4375
3715.79,88.75
3700.0,88.125
3684.21,87.8125
3668.42,86.25
3652.63,85.3125
3636.84,85.625
3621.05,85.0
3605.26,85.3125
3589.47,84.375
3573.68,84.6875
3557.89,85.9375
3542.11,85.9375
3526.32,86.25
3510.53,85.9375
3494.74,85.625
3478.95,85.625
3463.16,85.0
3447.37,84.6875
3431.58,84.0625
3415.79,83.75
3400.0,83.75
3384.21,80.625
3368.42,80.625
3352.63,74.0625
3336.84,78.125
3321.05,75.625
3305.26,62.8125
3289.47,24.6875
3273.68,11.5625
3257.89,5.625
3242.11,13.125
3226.32,29.375
3210.53,20.625
3194.74,36.5625
3178.95,77.5
3163.16,83.75
3147.37,87.1875
3131.58,87.1875
3115.79,86.5625
3100.0,87.5
3084.21,87.5
3068.42,87.8125
3052.63,88.4375
3036.84,87.8125
3021.05,88.4375
3005.26,89.6875
2989.47,90.3125
2973.68,90.3125
2957.89,90.3125
2942.11,90.0
2926.32,90.3125
2910.53,90.0
2894.74,90.3125
2878.95,90.9375
2863.16,90.9375
2847.37,90.9375
2831.58,90.9375
2815.79,90.9375
2800.0,90.625
2784.21,91.25
2768.42,91.5625
2752.63,92.5
2736.84,93.125
2721.05,92.1875
2705.26,92.5
2689.47,92.8125
2673.68,93.125
2657.89,91.875
2642.11,91.875
2626.32,91.5625
2610.53,91.875
2594.74,92.5
2578.95,92.8125
2563.16,92.5
2547.37,92.8125
2531.58,91.875
2515.79,90.9375
2500.0,91.5625
2484.21,93.4375
2468.42,94.0625
2452.63,94.375
2436.84,94.6875
2421.05,93.4375
2405.26,92.1875
2389.47,92.1875
2373.68,92.1875
2357.89,91.25
2342.11,88.125
2326.32,83.75
2310.53,71.5625
2294.74,25.9375
2278.95,5.625
2263.16,25.9375
2247.37,11.25
2231.58,28.125
2215.79,64.375
2200.0,74.375
2184.21,77.5
2168.42,85.3125
2152.63,88.125
2136.84,89.6875
2121.05,90.3125
2105.26,90.9375
2089.47,88.125
2073.68,52.8125
2057.89,55.0
2042.11,79.375
2026.32,89.0625
2010.53,90.9375
1994.74,90.625
1978.95,89.6875
1963.16,85.9375
1947.37,59.375
1931.58,11.5625
1915.79,55.9375
1900.0,70.0
1884.21,46.25
1868.42,35.3125
1852.63,42.1875
1836.84,56.5625
1821.05,77.1875
1805.26,73.125
1789.47,77.8125
1773.68,37.1875
1757.89,45.9375
1742.11,55.625
1726.32,75.625
1710.53,76.875
1694.74,73.125
1678.95,65.0
1663.16,48.75
1647.37,39.375
1631.58,29.0625
1615.79,12.5
1600.0,5.0
1584.21,5.625
1568.42,6.5625
1552.63,13.75
1536.84,8.4375
1521.05,9.6875
1505.26,7.8125
1489.47,5.0
1473.68,17.8125
1457.89,12.1875
1442.11,20.9375
1426.32,42.1875
1410.53,54.375
1394.74,54.6875
1378.95,45
1363.16,62.8125
1347.37,41.875
1331.58,12.8125
1315.79,34.0625
1300.0,46.5625
1284.21,39.6875
1268.42,66.5625
1252.63,33.75
1236.84,46.875
1221.05,67.5
1205.26,71.875
1189.47,40.625
1173.68,53.125
1157.89,69.375
1142.11,75.0
1126.32,66.875
1110.53,70.9375
1094.74,73.125
1078.95,69.375
1063.16,70.9375
1047.37,37.8125
1031.58,61.25
1015.79,78.4375
1000.0,77.5
984.211,79.375
968.421,77.8125
952.632,61.5625
936.842,78.75
921.053,66.875
905.263,56.875
889.474,70.625
873.684,71.875
857.895,78.4375
842.105,67.8125
826.316,81.5625
810.526,87.1875
794.737,81.25
778.947,86.25
763.158,92.1875
747.368,83.4375
731.579,92.5
715.789,91.25
700,90.3125
684.211,93.125
668.421,94.0625
652.632,92.8125
636.842,70.0
621.053,89.375
605.263,93.75
589.474,94.0625
573.684,79.6875
557.895,74.0625
542.105,81.25
526.316,84.6875
510.526,85.9375
494.737,85.9375
478.947,86.25
463.158,86.25
447.368,84.375
431.579,77.1875
415.789,65.625
400.0,58.4375

File: polyethylene glycol mono-p-nonylphenyl ether.csv
Wavenumber,Intensity
4000.0,0.0
3984.21,86.25
3968.42,88.125
3952.63,89.6875
3936.84,91.25
3921.05,92.8125
3905.26,93.125
3889.47,93.75
3873.68,94.0625
3857.89,94.0625
3842.11,93.75
3826.32,94.0625
3810.53,93.75
3794.74,93.4375
3778.95,91.875
3763.16,89.375
3747.37,84.375
3731.58,75.625
3715.79,67.1875
3700.0,61.25
3684.21,55.0
3668.42,48.4375
3652.63,43.75
3636.84,41.875
3621.05,41.25
3605.26,40.625
3589.47,39.6875
3573.68,38.125
3557.89,36.875
3542.11,36.5625
3526.32,37.1875
3510.53,39.0625
3494.74,42.1875
3478.95,46.5625
3463.16,51.5625
3447.37,57.1875
3431.58,62.5
3415.79,68.4375
3400.0,72.5
3384.21,75.0
3368.42,74.375
3352.63,67.5
3336.84,63.125
3321.05,67.1875
3305.26,51.875
3289.47,13.125
3273.68,6.875
3257.89,6.25
3242.11,5.9375
3226.32,5.3125
3210.53,5.0
3194.74,10.625
3178.95,22.5
3163.16,33.75
3147.37,46.5625
3131.58,52.5
3115.79,54.0625
3100.0,60.9375
3084.21,71.5625
3068.42,80.0
3052.63,81.875
3036.84,82.5
3021.05,83.125
3005.26,84.6875
2989.47,85.3125
2973.68,85.9375
2957.89,86.5625
2942.11,87.5
2926.32,89.0625
2910.53,89.0625
2894.74,89.6875
2878.95,90.625
2863.16,90.3125
2847.37,90.3125
2831.58,90.0
2815.79,89.6875
2800.0,89.375
2784.21,89.375
2768.42,89.375
2752.63,89.6875
2736.84,88.75
2721.05,88.4375
2705.26,88.125
2689.47,87.8125
2673.68,87.8125
2657.89,88.4375
2642.11,88.4375
2626.32,87.5
2610.53,84.375
2594.74,81.875
2578.95,80.625
2563.16,80.0
2547.37,80.3125
2531.58,81.25
2515.79,83.4375
2500.0,85.625
2484.21,87.5
2468.42,88.125
2452.63,88.125
2436.84,89.6875
2421.05,92.1875
2405.26,93.4375
2389.47,94.375
2373.68,94.6875
2357.89,94.6875
2342.11,94.375
2326.32,94.0625
2310.53,93.125
2294.74,92.1875
2278.95,90.9375
2263.16,90.9375
2247.37,91.25
2231.58,91.5625
2215.79,92.5
2200.0,92.8125
2184.21,92.5
2168.42,90.9375
2152.63,87.5
2136.84,81.875
2121.05,77.1875
2105.26,76.25
2089.47,70.0
2073.68,33.125
2057.89,53.4375
2042.11,75.3125
2026.32,59.375
2010.53,81.875
1994.74,85.0
1978.95,82.8125
1963.16,73.125
1947.37,32.8125
1931.58,10.3125
1915.79,42.5
1900.0,35.9375
1884.21,21.875
1868.42,16.25
1852.63,15.625
1836.84,28.125
1821.05,50.3125
1805.26,55.0
1789.47,52.8125
1773.68,50.625
1757.89,33.125
1742.11,30.0
1726.32,23.125
1710.53,16.5625
1694.74,37.8125
1678.95,34.375
1663.16,31.25
1647.37,19.375
1631.58,16.875
1615.79,20.0
1600.0,27.5
1584.21,12.5
1568.42,8.125
1552.63,13.75
1536.84,25.0
1521.05,38.75
1505.26,47.5
1489.47,22.8125
1473.68,30.3125
1457.89,26.5625
1442.11,9.0625
1426.32,5.9375
1410.53,5.3125
1394.74,4.6875
1378.95,4.6875
1363.16,5.3125
1347.37,6.5625
1331.58,9.0625
1315.79,10.3125
1300.0,14.0625
1284.21,17.1875
1268.42,19.6875
1252.63,31.25
1236.84,35.9375
1221.05,40.3125
1205.26,44.0625
1189.47,49.0625
1173.68,27.1875
1157.89,19.0625
1142.11,21.5625
1126.32,25.9375
1110.53,33.125
1094.74,43.75
1078.95,48.75
1063.16,45.9375
1047.37,46.5625
1031.58,40.9375
1015.79,31.5625
1000.0,26.25
984.211,26.875
968.421,49.6875
952.632,55.0
936.842,72.5
921.053,79.375
905.263,86.875
889.474,80.9375
873.684,82.1875
857.895,85.625
842.105,92.5
826.316,94.375
810.526,91.875
794.737,85.3125
778.947,80.625
763.158,86.5625
747.368,86.25
731.579,84.375
715.789,81.5625
700,77.8125
684.211,71.5625
668.421,65.0
652.632,60.625
636.842,54.375
621.053,52.8125
605.263,56.25
589.474,59.375
573.684,59.6875
557.895,60.625
542.105,64.0625
526.316,68.75
510.526,73.125
494.737,76.5625
478.947,79.0625
463.158,81.25
447.368,82.5
431.579,82.5
415.789,81.25
400.0,80.625

File: propylene carbonate.csv
Wavenumber,Intensity
4000.0,0.0
3984.21,84.6875
3968.42,84.6875
3952.63,85.625
3936.84,86.5625
3921.05,87.1875
3905.26,87.5
3889.47,88.125
3873.68,88.4375
3857.89,88.75
3842.11,88.75
3826.32,89.0625
3810.53,89.0625
3794.74,88.4375
3778.95,84.6875
3763.16,78.4375
3747.37,73.125
3731.58,68.125
3715.79,63.75
3700.0,58.75
3684.21,55.0
3668.42,52.1875
3652.63,49.6875
3636.84,46.875
3621.05,44.6875
3605.26,43.4375
3589.47,42.5
3573.68,42.1875
3557.89,42.1875
3542.11,43.125
3526.32,44.0625
3510.53,44.6875
3494.74,44.6875
3478.95,46.25
3463.16,47.8125
3447.37,50.3125
3431.58,52.5
3415.79,55.0
3400.0,57.5
3384.21,60.0
3368.42,62.1875
3352.63,63.4375
3336.84,64.375
3321.05,60.9375
3305.26,48.125
3289.47,48.4375
3273.68,57.8125
3257.89,55.0
3242.11,60.3125
3226.32,66.25
3210.53,68.4375
3194.74,69.6875
3178.95,72.5
3163.16,75.3125
3147.37,76.875
3131.58,77.8125
3115.79,78.75
3100.0,79.6875
3084.21,80.9375
3068.42,81.875
3052.63,82.8125
3036.84,83.4375
3021.05,83.75
3005.26,84.0625
2989.47,84.0625
2973.68,83.75
2957.89,84.0625
2942.11,85.0
2926.32,85.9375
2910.53,86.5625
2894.74,87.1875
2878.95,85.9375
2863.16,85.9375
2847.37,86.25
2831.58,86.5625
2815.79,87.8125
2800.0,89.375
2784.21,89.6875
2768.42,90.3125
2752.63,91.5625
2736.84,91.5625
2721.05,91.5625
2705.26,91.5625
2689.47,91.5625
2673.68,92.1875
2657.89,92.5
2642.11,92.5
2626.32,91.5625
2610.53,90.9375
2594.74,90.3125
2578.95,89.6875
2563.16,90.0
2547.37,90.0
2531.58,89.6875
2515.79,89.0625
2500.0,87.1875
2484.21,81.5625
2468.42,80.0
2452.63,79.375
2436.84,74.0625
2421.05,66.25
2405.26,55.0
2389.47,32.8125
2373.68,15.9375
2357.89,7.5
2342.11,5.625
2326.32,4.6875
2310.53,5.0
2294.74,14.6875
2278.95,35.3125
2263.16,53.125
2247.37,63.4375
2231.58,71.25
2215.79,75.3125
2200.0,75.625
2184.21,75.9375
2168.42,76.25
2152.63,75.0
2136.84,72.8125
2121.05,70.3125
2105.26,69.0625
2089.47,69.375
2073.68,70.3125
2057.89,68.4375
2042.11,63.75
2026.32,58.4375
2010.53,52.5
1994.74,49.375
1978.95,57.1875
1963.16,63.125
1947.37,66.25
1931.58,65.0
1915.79,57.5
1900.0,38.4375
1884.21,46.25
1868.42,52.1875
1852.63,51.5625
1836.84,60.9375
1821.05,65.0
1805.26,60.0
1789.47,46.5625
1773.68,27.1875
1757.89,23.75
1742.11,57.1875
1726.32,40.625
1710.53,29.0625
1694.74,50.9375
1678.95,54.0625
1663.16,62.1875
1647.37,65.625
1631.58,67.5
1615.79,68.75
1600.0,70.0
1584.21,71.5625
1568.42,72.8125
1552.63,67.1875
1536.84,59.0625
1521.05,56.5625
1505.26,28.75
1489.47,12.5
1473.68,12.8125
1457.89,18.75
1442.11,33.4375
1426.32,37.8125
1410.53,40.9375
1394.74,18.125
1378.95,29.375
1363.16,47.8125
1347.37,30.0
1331.58,21.875
1315.79,20.9375
1300.0,10.625
1284.21,16.5625
1268.42,40.0
1252.63,72.1875
1236.84,84.6875
1221.05,89.0625
1205.26,91.875
1189.47,92.1875
1173.68,85.3125
1157.89,82.5
1142.11,85.0
1126.32,90.0
1110.53,90.3125
1094.74,92.1875
1078.95,94.375
1063.16,94.6875
1047.37,93.4375
1031.58,87.1875
1015.79,78.75
1000.0,84.375
984.211,85.9375
968.421,86.5625
952.632,85.9375
936.842,78.125
921.053,27.5
905.263,50.3125
889.474,81.25
873.684,84.0625
857.895,83.125
842.105,75.625
826.316,45
810.526,70.9375
794.737,81.25
778.947,82.8125
763.158,82.5
747.368,81.5625
731.579,80.9375
715.789,80.9375
700,81.5625
684.211,81.875
668.421,81.875
652.632,82.5
636.842,82.8125
621.053,82.8125
605.263,81.875
589.474,81.5625
573.684,81.875
557.895,82.5
542.105,82.8125
526.316,83.125
510.526,83.4375
494.737,81.5625
478.947,78.4375
463.158,76.875
447.368,76.5625
431.579,76.5625
415.789,74.0625
400.0,71.875

File: pyridine 1-oxide.csv
Wavenumber,Intensity
4000.0,0.0
3984.21,87.8125
3968.42,87.5
3952.63,86.875
3936.84,87.1875
3921.05,87.8125
3905.26,87.8125
3889.47,88.125
3873.68,88.125
3857.89,88.125
3842.11,88.125
3826.32,87.5
3810.53,87.1875
3794.74,87.5
3778.95,85.0
3763.16,81.875
3747.37,77.8125
3731.58,70.0
3715.79,61.875
3700.0,52.8125
3684.21,45
3668.42,37.1875
3652.63,31.25
3636.84,26.875
3621.05,24.0625
3605.26,21.875
3589.47,21.25
3573.68,20.9375
3557.89,21.25
3542.11,22.8125
3526.32,24.375
3510.53,25.625
3494.74,26.875
3478.95,28.4375
3463.16,30.9375
3447.37,34.375
3431.58,38.4375
3415.79,41.875
3400.0,44.0625
3384.21,28.125
3368.42,29.6875
3352.63,29.0625
3336.84,32.5
3321.05,44.0625
3305.26,45.625
3289.47,60.9375
3273.68,62.1875
3257.89,61.5625
3242.11,65.625
3226.32,70.625
3210.53,73.4375
3194.74,73.75
3178.95,77.5
3163.16,79.6875
3147.37,79.375
3131.58,87.1875
3115.79,88.125
3100.0,87.8125
3084.21,88.75
3068.42,88.125
3052.63,87.1875
3036.84,90.3125
3021.05,91.875
3005.26,91.875
2989.47,91.875
2973.68,90.3125
2957.89,86.25
2942.11,82.1875
2926.32,84.375
2910.53,85.9375
2894.74,86.5625
2878.95,89.0625
2863.16,90.3125
2847.37,90.0
2831.58,90.0
2815.79,87.1875
2800.0,90.0
2784.21,89.0625
2768.42,89.6875
2752.63,90.3125
2736.84,90.3125
2721.05,90.3125
2705.26,90.9375
2689.47,91.25
2673.68,87.5
2657.89,85.3125
2642.11,89.6875
2626.32,90.0
2610.53,89.6875
2594.74,90.625
2578.95,90.625
2563.16,90.3125
2547.37,90.9375
2531.58,91.875
2515.79,92.8125
2500.0,93.4375
2484.21,92.8125
2468.42,92.1875
2452.63,91.875
2436.84,91.5625
2421.05,91.25
2405.26,91.875
2389.47,93.4375
2373.68,95.0
2357.89,94.375
2342.11,93.4375
2326.32,92.8125
2310.53,92.8125
2294.74,92.5
2278.95,92.1875
2263.16,91.875
2247.37,91.5625
2231.58,90.625
2215.79,87.1875
2200.0,82.5
2184.21,76.875
2168.42,72.5
2152.63,69.6875
2136.84,69.375
2121.05,72.1875
2105.26,75.3125
2089.47,76.5625
2073.68,59.0625
2057.89,46.875
2042.11,77.1875
2026.32,88.125
2010.53,83.75
1994.74,79.6875
1978.95,90.9375
1963.16,91.875
1947.37,89.0625
1931.58,84.6875
1915.79,79.0625
1900.0,60.0
1884.21,15.0
1868.42,4.6875
1852.63,15.625
1836.84,53.75
1821.05,66.25
1805.26,75.0
1789.47,81.875
1773.68,85.9375
1757.89,80.625
1742.11,81.875
1726.32,85.9375
1710.53,88.4375
1694.74,86.5625
1678.95,85.625
1663.16,88.4375
1647.37,88.75
1631.58,84.6875
1615.79,74.375
1600.0,50.9375
1584.21,15.3125
1568.42,9.6875
1552.63,10.0
1536.84,14.0625
1521.05,37.1875
1505.26,47.5
1489.47,40.3125
1473.68,25.625
1457.89,22.1875
1442.11,57.8125
1426.32,61.875
1410.53,78.125
1394.74,84.0625
1378.95,83.75
1363.16,81.25
1347.37,84.375
1331.58,71.5625
1315.79,68.75
1300.0,83.75
1284.21,75.625
1268.42,61.25
1252.63,20.9375
1236.84,45.9375
1221.05,76.875
1205.26,86.25
1189.47,88.4375
1173.68,88.4375
1157.89,91.875
1142.11,89.375
1126.32,79.0625
1110.53,73.4375
1094.74,76.5625
1078.95,89.0625
1063.16,92.8125
1047.37,92.8125
1031.58,87.8125
1015.79,56.5625
1000.0,16.25
984.211,28.4375
968.421,58.4375
952.632,67.5
936.842,43.4375
921.053,20.3125
905.263,14.6875
889.474,35.9375
873.684,68.125
857.895,72.5
842.105,71.5625
826.316,70.3125
810.526,65.3125
794.737,38.75
778.947,18.125
763.158,38.75
747.368,55.0
731.579,61.875
715.789,61.25
700,63.125
684.211,64.0625
668.421,64.0625
652.632,64.375
636.842,65.3125
621.053,62.1875
605.263,33.125
589.474,44.0625
573.684,65.0
557.895,51.5625
542.105,56.875
526.316,66.5625
510.526,62.1875
494.737,32.5
478.947,44.0625
463.158,67.1875
447.368,79.6875
431.579,77.1875
415.789,77.1875
400.0,79.6875

File: tert-pentylferrocene.csv
Wavenumber,Intensity
4000.0,0.0
3984.21,89.375
3968.42,89.6875
3952.63,89.6875
3936.84,90.0
3921.05,90.0
3905.26,90.0
3889.47,90.625
3873.68,90.3125
3857.89,90.625
3842.11,90.9375
3826.32,90.9375
3810.53,91.25
3794.74,91.875
3778.95,91.875
3763.16,92.1875
3747.37,92.1875
3731.58,92.5
3715.79,92.8125
3700.0,93.125
3684.21,93.125
3668.42,93.4375
3652.63,93.4375
3636.84,93.4375
3621.05,93.75
3605.26,94.0625
3589.47,94.0625
3573.68,94.0625
3557.89,94.375
3542.11,94.6875
3526.32,94.6875
3510.53,94.6875
3494.74,94.6875
3478.95,94.6875
3463.16,94.375
3447.37,93.125
3431.58,91.5625
3415.79,89.375
3400.0,88.4375
3384.21,85.9375
3368.42,81.875
3352.63,80.9375
3336.84,72.5
3321.05,74.375
3305.26,66.875
3289.47,48.125
3273.68,19.375
3257.89,5.9375
3242.11,8.75
3226.32,19.0625
3210.53,15.0
3194.74,19.375
3178.95,36.5625
3163.16,41.5625
3147.37,50.3125
3131.58,51.5625
3115.79,56.5625
3100.0,55.9375
3084.21,62.1875
3068.42,66.875
3052.63,62.8125
3036.84,44.0625
3021.05,43.125
3005.26,44.375
2989.47,58.4375
2973.68,68.75
2957.89,75.625
2942.11,79.6875
2926.32,82.1875
2910.53,81.5625
2894.74,84.375
2878.95,86.25
2863.16,87.5
2847.37,88.4375
2831.58,89.375
2815.79,90.3125
2800.0,88.75
2784.21,90.3125
2768.42,91.875
2752.63,90.625
2736.84,92.5
2721.05,92.5
2705.26,93.4375
2689.47,94.0625
2673.68,93.75
2657.89,87.5
2642.11,88.4375
2626.32,72.5
2610.53,77.5
2594.74,76.875
2578.95,81.875
2563.16,85.3125
2547.37,87.8125
2531.58,90.0
2515.79,90.625
2500.0,89.375
2484.21,89.6875
2468.42,89.6875
2452.63,90.9375
2436.84,90.0
2421.05,92.1875
2405.26,92.5
2389.47,93.125
2373.68,93.4375
2357.89,93.75
2342.11,93.125
2326.32,92.5
2310.53,92.8125
2294.74,93.125
2278.95,93.4375
2263.16,93.4375
2247.37,93.4375
2231.58,93.75
2215.79,94.0625
2200.0,94.0625
2184.21,94.0625
2168.42,94.0625
2152.63,93.75
2136.84,93.125
2121.05,92.8125
2105.26,89.0625
2089.47,90.9375
2073.68,91.875
2057.89,75.0
2042.11,83.4375
2026.32,76.875
2010.53,84.375
1994.74,87.1875
1978.95,87.5
1963.16,87.5
1947.37,70.3125
1931.58,86.25
1915.79,57.1875
1900.0,70.3125
1884.21,77.1875
1868.42,48.4375
1852.63,67.8125
1836.84,80.3125
1821.05,88.125
1805.26,91.25
1789.47,91.5625
1773.68,90.9375
1757.89,83.75
1742.11,80.625
1726.32,88.4375
1710.53,90.9375
1694.74,91.5625
1678.95,87.5
1663.16,91.875
1647.37,92.1875
1631.58,89.0625
1615.79,91.5625
1600.0,93.125
1584.21,93.4375
1568.42,93.4375
1552.63,93.125
1536.84,93.125
1521.05,93.4375
1505.26,84.375
1489.47,91.25
1473.68,91.5625
1457.89,90.9375
1442.11,90.625
1426.32,85.9375
1410.53,90.0
1394.74,91.875
1378.95,86.875
1363.16,90.3125
1347.37,93.125
1331.58,94.0625
1315.79,93.125
1300.0,91.25
1284.21,93.75
1268.42,85.3125
1252.63,90.9375
1236.84,93.125
1221.05,94.0625
1205.26,94.375
1189.47,94.0625
1173.68,93.75
1157.89,93.75
1142.11,93.75
1126.32,93.4375
1110.53,93.4375
1094.74,90.625
1078.95,93.4375
1063.16,93.75
1047.37,93.125
1031.58,93.125
1015.79,93.125
1000.0,93.75
984.211,94.0625
968.421,93.75
952.632,93.4375
936.842,93.4375
921.053,92.8125
905.263,92.1875
889.474,89.375
873.684,56.875
857.895,71.875
842.105,86.875
826.316,90.3125
810.526,91.875
794.737,54.375
778.947,87.8125
763.158,92.5
747.368,92.5
731.579,92.8125
715.789,93.125
700,84.0625
684.211,92.8125
668.421,93.4375
652.632,92.8125
636.842,92.5
621.053,92.5
605.263,92.8125
589.474,93.125
573.684,90.9375
557.895,87.1875
542.105,91.25
526.316,90.0
510.526,83.4375
494.737,45.3125
478.947,87.1875
463.158,92.8125
447.368,88.75
431.579,80.0
415.789,66.5625
400.0,57.8125

File: tetrahydrothiophene 1,1-dioxide.csv
Wavenumber,Intensity
4000.0,0.0
3984.21,93.125
3968.42,92.5
3952.63,92.5
3936.84,92.1875
3921.05,92.1875
3905.26,91.875
3889.47,91.875
3873.68,91.5625
3857.89,91.25
3842.11,90.9375
3826.32,90.625
3810.53,90.625
3794.74,90.3125
3778.95,88.125
3763.16,82.8125
3747.37,74.0625
3731.58,66.5625
3715.79,66.25
3700.0,69.375
3684.21,70.625
3668.42,72.1875
3652.63,76.875
3636.84,79.6875
3621.05,80.3125
3605.26,80.9375
3589.47,81.25
3573.68,81.875
3557.89,82.5
3542.11,83.4375
3526.32,84.0625
3510.53,83.75
3494.74,83.75
3478.95,83.4375
3463.16,83.75
3447.37,84.6875
3431.58,85.625
3415.79,86.5625
3400.0,87.1875
3384.21,87.5
3368.42,87.5
3352.63,86.5625
3336.84,84.375
3321.05,77.1875
3305.26,70.9375
3289.47,61.25
3273.68,50.625
3257.89,68.125
3242.11,78.75
3226.32,73.75
3210.53,82.1875
3194.74,90.3125
3178.95,91.875
3163.16,92.1875
3147.37,92.5
3131.58,92.8125
3115.79,93.125
3100.0,93.125
3084.21,93.125
3068.42,93.125
3052.63,92.8125
3036.84,92.8125
3021.05,93.125
3005.26,93.125
2989.47,93.125
2973.68,93.125
2957.89,93.125
2942.11,92.8125
2926.32,92.1875
2910.53,91.5625
2894.74,90.0
2878.95,90.9375
2863.16,91.5625
2847.37,91.5625
2831.58,91.5625
2815.79,91.875
2800.0,91.875
2784.21,91.5625
2768.42,90.9375
2752.63,90.9375
2736.84,91.875
2721.05,92.5
2705.26,92.8125
2689.47,92.8125
2673.68,92.5
2657.89,92.5
2642.11,92.8125
2626.32,92.8125
2610.53,92.8125
2594.74,92.8125
2578.95,92.8125
2563.16,93.125
2547.37,92.8125
2531.58,92.8125
2515.79,93.125
2500.0,93.4375
2484.21,93.75
2468.42,93.75
2452.63,93.4375
2436.84,93.4375
2421.05,93.4375
2405.26,93.4375
2389.47,93.75
2373.68,93.75
2357.89,93.75
2342.11,93.4375
2326.32,93.4375
2310.53,93.4375
2294.74,93.4375
2278.95,93.4375
2263.16,93.4375
2247.37,93.4375
2231.58,93.125
2215.79,92.8125
2200.0,92.5
2184.21,92.5
2168.42,91.875
2152.63,90.625
2136.84,88.125
2121.05,85.0
2105.26,84.6875
2089.47,85.9375
2073.68,90.0
2057.89,92.1875
2042.11,94.6875
2026.32,94.6875
2010.53,94.6875
1994.74,94.375
1978.95,94.0625
1963.16,93.4375
1947.37,93.125
1931.58,92.1875
1915.79,91.875
1900.0,90.9375
1884.21,86.875
1868.42,79.0625
1852.63,67.8125
1836.84,78.75
1821.05,78.125
1805.26,49.0625
1789.47,66.25
1773.68,85.625
1757.89,87.5
1742.11,86.875
1726.32,84.375
1710.53,78.4375
1694.74,67.8125
1678.95,38.4375
1663.16,10.625
1647.37,5.0
1631.58,6.5625
1615.79,17.1875
1600.0,18.125
1584.21,16.5625
1568.42,44.0625
1552.63,71.25
1536.84,77.8125
1521.05,75.3125
1505.26,72.1875
1489.47,75.625
1473.68,72.1875
1457.89,56.875
1442.11,15.625
1426.32,9.375
1410.53,32.5
1394.74,27.5
1378.95,10.625
1363.16,31.5625
1347.37,49.375
1331.58,61.5625
1315.79,83.4375
1300.0,87.8125
1284.21,84.6875
1268.42,75.625
1252.63,88.75
1236.84,90.0
1221.05,88.75
1205.26,88.4375
1189.47,89.375
1173.68,90.3125
1157.89,91.25
1142.11,90.9375
1126.32,88.125
1110.53,66.25
1094.74,39.375
1078.95,67.8125
1063.16,85.3125
1047.37,88.4375
1031.58,90.9375
1015.79,92.1875
1000.0,93.125
984.211,93.125
968.421,91.875
952.632,90.3125
936.842,88.75
921.053,87.5
905.263,85.625
889.474,79.6875
873.684,58.125
857.895,31.875
842.105,56.25
826.316,80.0
810.526,86.5625
794.737,85.0
778.947,78.125
763.158,79.0625
747.368,89.6875
731.579,90.625
715.789,90.0
700,89.0625
684.211,88.125
668.421,87.1875
652.632,81.875
636.842,51.25
621.053,38.75
605.263,82.1875
589.474,84.375
573.684,77.8125
557.895,70.3125
542.105,78.4375
526.316,80.9375
510.526,81.25
494.737,80.9375
478.947,77.8125
463.158,48.125
447.368,40.0
431.579,42.1875
415.789,47.8125
400.0,52.5